{"config_number": 0, "parameters": {"points_per_cent": 2, "time_limit": 5, "correct_responses": ["f", "j"], "combination_num": 8, "gaze_tolerance": 1.5, "triggers": "<triggers.Triggers object at 0x3152095b0>"}, "main_data": [{"trial": {"cue_direction": "right", "stimulus": "A|B", "correct_response": "j", "left_cue_condition": 0.3, "stimA_condition": 0.3, "response": "j", "performance": "Correct", "rt": 2.9197541250032373}, "events": [{"time": 7.933712000027299, "event": "initialize", "status": "ok"}, {"time": 7.933790875016712, "event": "start recording"}, {"time": 7.933856250019744, "event": "start"}, {"time": 7.9355474166804925, "event": "show fixation"}, {"time": 8.441384208330419, "event": "show cue"}, {"time": 9.946526041720062, "event": "show fixation"}, {"time": 10.45778637501644, "event": "start sound"}, {"time": 10.957923416688573, "event": "start decision window"}, {"time": 11.211692458309699, "event": "response"}, {"time": 13.377666833344847, "event": "done"}]}, {"trial": {"cue_direction": "left", "stimulus": "A|A", "correct_response": "f", "left_cue_condition": 0.3, "stimA_condition": 0.3, "response": "j", "performance": "Incorrect", "rt": 2.5557690417044796}, "events": [{"time": 13.38083579170052, "event": "initialize", "status": "ok"}, {"time": 13.380892375018448, "event": "start recording"}, {"time": 13.380960291717201, "event": "start"}, {"time": 13.381852666730992, "event": "show fixation"}, {"time": 13.887470750021748, "event": "show cue"}, {"time": 15.392686250037514, "event": "show fixation"}, {"time": 15.907561166735832, "event": "start sound"}, {"time": 16.407762499991804, "event": "start decision window"}, {"time": 16.571711500000674, "event": "response"}, {"time": 18.463505291729234, "event": "done"}]}, {"trial": {"cue_direction": "right", "stimulus": "B|A", "correct_response": "f", "left_cue_condition": 0.3, "stimA_condition": 0.3, "response": "f", "performance": "Correct", "rt": 2.6991804583230987}, "events": [{"time": 18.467511249997187, "event": "initialize", "status": "ok"}, {"time": 18.467601708311122, "event": "start recording"}, {"time": 18.46768195834011, "event": "start"}, {"time": 18.4685282917344, "event": "show fixation"}, {"time": 18.974290041718632, "event": "show cue"}, {"time": 20.47925979172578, "event": "show fixation"}, {"time": 20.9882959999959, "event": "start sound"}, {"time": 21.488472249999177, "event": "start decision window"}, {"time": 22.075175416714046, "event": "response"}, {"time": 23.687652708322275, "event": "done"}]}, {"trial": {"cue_direction": "left", "stimulus": "A|A", "correct_response": "f", "left_cue_condition": 0.9, "stimA_condition": 0.9, "response": "j", "performance": "Incorrect", "rt": 2.9173616666230373}, "events": [{"time": 25.63764116668608, "event": "initialize", "status": "ok"}, {"time": 25.637715291697532, "event": "start recording"}, {"time": 25.63778641668614, "event": "start"}, {"time": 25.63877662504092, "event": "show fixation"}, {"time": 26.14437087503029, "event": "show cue"}, {"time": 27.649655500019435, "event": "show fixation"}, {"time": 28.158190125017427, "event": "start sound"}, {"time": 28.658316666726023, "event": "start decision window"}, {"time": 28.93897725001443, "event": "response"}, {"time": 31.075666791701224, "event": "done"}]}, {"trial": {"cue_direction": "left", "stimulus": "A|A", "correct_response": "f", "left_cue_condition": 0.9, "stimA_condition": 0.9, "response": null, "performance": null, "rt": null}, "events": [{"time": 31.083943916717544, "event": "initialize", "status": "ok"}, {"time": 31.084003291733097, "event": "start recording"}, {"time": 31.084082791698165, "event": "start"}, {"time": 31.08512220834382, "event": "show fixation"}, {"time": 31.596779708343092, "event": "show cue"}, {"time": 33.10181633330649, "event": "show fixation"}, {"time": 33.61062045831932, "event": "start sound"}, {"time": 34.110768500017, "event": "start decision window"}, {"time": 39.35569808335276, "event": "response"}, {"time": 39.35581662500044, "event": "done"}]}, {"trial": {"cue_direction": "left", "stimulus": "A|A", "correct_response": "f", "left_cue_condition": 0.9, "stimA_condition": 0.9, "response": "f", "performance": "Correct", "rt": 2.1908475416130386}, "events": [{"time": 39.35900741670048, "event": "initialize", "status": "ok"}, {"time": 39.359068666701205, "event": "start recording"}, {"time": 39.35913687502034, "event": "start"}, {"time": 39.3599850833416, "event": "show fixation"}, {"time": 39.86736333335284, "event": "show cue"}, {"time": 41.373015458346345, "event": "show fixation"}, {"time": 41.88153600000078, "event": "start sound"}, {"time": 42.381684208347, "event": "start decision window"}, {"time": 42.51445766672259, "event": "response"}, {"time": 44.07252683333354, "event": "done"}]}], "practice_data": [], "window": [3840, 2160], "bonus": 2.09}