{"config_number": 0, "parameters": {"points_per_cent": 2, "time_limit": 5, "correct_responses": ["f", "j"], "combination_num": 8, "gaze_tolerance": 1.5, "triggers": "<triggers.Triggers object at 0x1474f3e50>"}, "main_data": [{"trial": {"cue_direction": "left", "stimulus": "A|A", "correct_response": "f", "left_cue_condition": 0.9, "stimA_condition": 0.9, "response": "f", "performance": "Correct", "rt": 3.4720806665718555}, "events": [{"time": 206.77824366674758, "event": "initialize", "status": "ok"}, {"time": 206.77859658328816, "event": "start recording"}, {"time": 207.00362274993677, "event": "start"}, {"time": 207.0161577083636, "event": "show fixation"}, {"time": 207.52172479173169, "event": "show cue"}, {"time": 209.0257329583401, "event": "show fixation"}, {"time": 209.59724312496837, "event": "start sound"}, {"time": 210.09754824999254, "event": "start decision window"}, {"time": 210.84391549997963, "event": "response"}, {"time": 213.0696212083567, "event": "done"}]}, {"trial": {"cue_direction": "left", "stimulus": "B|A", "correct_response": "j", "left_cue_condition": 0.9, "stimA_condition": 0.9, "response": "j", "performance": "Correct", "rt": 4.574784791562706}, "events": [{"time": 213.08226774993818, "event": "initialize", "status": "ok"}, {"time": 213.08232895832043, "event": "start recording"}, {"time": 213.32101487496402, "event": "start"}, {"time": 213.32764279167168, "event": "show fixation"}, {"time": 213.83302541670855, "event": "show cue"}, {"time": 215.33840399992187, "event": "show fixation"}, {"time": 215.84899633331224, "event": "start sound"}, {"time": 216.3492329167202, "event": "start decision window"}, {"time": 218.01202595827635, "event": "response"}, {"time": 220.4240112917032, "event": "done"}]}, {"trial": {"cue_direction": "left", "stimulus": "A|A", "correct_response": "f", "left_cue_condition": 0.9, "stimA_condition": 0.9, "response": "f", "performance": "Correct", "rt": 3.329738083295524}, "events": [{"time": 220.4378787917085, "event": "initialize", "status": "ok"}, {"time": 220.4379414167488, "event": "start recording"}, {"time": 220.67283658334054, "event": "start"}, {"time": 220.67955662496388, "event": "show fixation"}, {"time": 221.1845364999026, "event": "show cue"}, {"time": 222.69002816674765, "event": "show fixation"}, {"time": 223.19798479171004, "event": "start sound"}, {"time": 223.69822358328383, "event": "start decision window"}, {"time": 224.6280764999101, "event": "response"}, {"time": 226.52793683332857, "event": "done"}]}, {"trial": {"cue_direction": "left", "stimulus": "A|A", "correct_response": "f", "left_cue_condition": 0.9, "stimA_condition": 0.9, "response": "f", "performance": "Correct", "rt": 2.9326417081756517}, "events": [{"time": 226.5411830417579, "event": "initialize", "status": "ok"}, {"time": 226.54124366666656, "event": "start recording"}, {"time": 226.7836895417422, "event": "start"}, {"time": 226.79133841674775, "event": "show fixation"}, {"time": 227.29685141670052, "event": "show cue"}, {"time": 228.80257804167923, "event": "show fixation"}, {"time": 229.3101890416583, "event": "start sound"}, {"time": 229.8104389583459, "event": "start decision window"}, {"time": 230.6681726666866, "event": "response"}, {"time": 232.24302383337636, "event": "done"}]}, {"trial": {"cue_direction": "left", "stimulus": "A|A", "correct_response": "f", "left_cue_condition": 0.9, "stimA_condition": 0.9, "response": "f", "performance": "Correct", "rt": 3.887261625030078}, "events": [{"time": 232.25631891668309, "event": "initialize", "status": "ok"}, {"time": 232.25637904170435, "event": "start recording"}, {"time": 232.49227166664787, "event": "start"}, {"time": 232.4996100832941, "event": "show fixation"}, {"time": 233.00382016669028, "event": "show cue"}, {"time": 234.50816674996167, "event": "show fixation"}, {"time": 235.016109624994, "event": "start sound"}, {"time": 235.5163838333683, "event": "start decision window"}, {"time": 237.30820795835461, "event": "response"}, {"time": 238.9035819999408, "event": "done"}]}, {"trial": {"cue_direction": "left", "stimulus": "A|A", "correct_response": "f", "left_cue_condition": 0.9, "stimA_condition": 0.9, "response": null, "performance": null, "rt": null}, "events": [{"time": 238.91683491668664, "event": "initialize", "status": "ok"}, {"time": 238.91689458338078, "event": "start recording"}, {"time": 239.15285854169633, "event": "start"}, {"time": 239.15982337493915, "event": "show fixation"}, {"time": 239.66528537496924, "event": "show cue"}, {"time": 241.1702462916728, "event": "show fixation"}, {"time": 241.67786770837847, "event": "start sound"}, {"time": 242.17811249999795, "event": "start decision window"}, {"time": 246.88838349992875, "event": "response"}, {"time": 246.88855324999895, "event": "done"}]}, {"trial": {"cue_direction": "left", "stimulus": "A|A", "correct_response": "f", "left_cue_condition": 0.9, "stimA_condition": 0.9, "response": "f", "performance": "Correct", "rt": 2.8957761665806174}, "events": [{"time": 246.90254287491553, "event": "initialize", "status": "ok"}, {"time": 246.90259766671807, "event": "start recording"}, {"time": 247.1370312917279, "event": "start"}, {"time": 247.14505274989642, "event": "show fixation"}, {"time": 247.65060787496623, "event": "show cue"}, {"time": 249.1561234999681, "event": "show fixation"}, {"time": 249.66535599995404, "event": "start sound"}, {"time": 250.1656047917204, "event": "start decision window"}, {"time": 250.8684658749262, "event": "response"}, {"time": 252.56134845828637, "event": "done"}]}, {"trial": {"cue_direction": "left", "stimulus": "B|A", "correct_response": "j", "left_cue_condition": 0.9, "stimA_condition": 0.9, "response": "j", "performance": "Correct", "rt": 4.108944750041701}, "events": [{"time": 252.57463033334352, "event": "initialize", "status": "ok"}, {"time": 252.5746906667482, "event": "start recording"}, {"time": 252.8278028332861, "event": "start"}, {"time": 252.83428516669665, "event": "show fixation"}, {"time": 253.33972079167143, "event": "show cue"}, {"time": 254.8448224166641, "event": "show fixation"}, {"time": 255.35273487493396, "event": "start sound"}, {"time": 255.8529968749499, "event": "start decision window"}, {"time": 257.6605244582752, "event": "response"}, {"time": 259.46191954170354, "event": "done"}]}, {"trial": {"cue_direction": "left", "stimulus": "A|A", "correct_response": "f", "left_cue_condition": 0.9, "stimA_condition": 0.9, "response": "f", "performance": "Correct", "rt": 3.18537808326073}, "events": [{"time": 259.4752515417058, "event": "initialize", "status": "ok"}, {"time": 259.47530495829415, "event": "start recording"}, {"time": 259.7025907499483, "event": "start"}, {"time": 259.7093077916652, "event": "show fixation"}, {"time": 260.21441745827906, "event": "show cue"}, {"time": 261.7184857499087, "event": "show fixation"}, {"time": 262.22594554175157, "event": "start sound"}, {"time": 262.7261506667128, "event": "start decision window"}, {"time": 262.98866524989717, "event": "response"}, {"time": 265.4115054582944, "event": "done"}]}, {"trial": {"cue_direction": "left", "stimulus": "A|A", "correct_response": "f", "left_cue_condition": 0.9, "stimA_condition": 0.9, "response": "f", "performance": "Correct", "rt": 2.4509740417124704}, "events": [{"time": 265.42459824995603, "event": "initialize", "status": "ok"}, {"time": 265.42466008337215, "event": "start recording"}, {"time": 265.65997549996246, "event": "start"}, {"time": 265.6668922082754, "event": "show fixation"}, {"time": 266.1719210416777, "event": "show cue"}, {"time": 267.6773212082917, "event": "show fixation"}, {"time": 268.1852479582885, "event": "start sound"}, {"time": 268.6855311249383, "event": "start decision window"}, {"time": 268.9567269999534, "event": "response"}, {"time": 270.6364846667275, "event": "done"}]}, {"trial": {"cue_direction": "left", "stimulus": "A|A", "correct_response": "f", "left_cue_condition": 0.9, "stimA_condition": 0.9, "response": "f", "performance": "Correct", "rt": 2.921320083318278}, "events": [{"time": 270.6497143333545, "event": "initialize", "status": "ok"}, {"time": 270.6497724999208, "event": "start recording"}, {"time": 270.88805487495847, "event": "start"}, {"time": 270.89313295832835, "event": "show fixation"}, {"time": 271.39918254164513, "event": "show cue"}, {"time": 272.90428641671315, "event": "show fixation"}, {"time": 273.41235083329957, "event": "start sound"}, {"time": 273.91259329172317, "event": "start decision window"}, {"time": 274.39686870831065, "event": "response"}, {"time": 276.3339098748984, "event": "done"}]}, {"trial": {"cue_direction": "right", "stimulus": "A|A", "correct_response": "f", "left_cue_condition": 0.9, "stimA_condition": 0.9, "response": "f", "performance": "Correct", "rt": 4.316178416716866}, "events": [{"time": 276.34743362490553, "event": "initialize", "status": "ok"}, {"time": 276.3475017499877, "event": "start recording"}, {"time": 276.5849876248976, "event": "start"}, {"time": 276.5925252083689, "event": "show fixation"}, {"time": 277.09842245827895, "event": "show cue"}, {"time": 278.60298974998295, "event": "show fixation"}, {"time": 279.11051816667896, "event": "start sound"}, {"time": 279.6107742083259, "event": "start decision window"}, {"time": 281.74874895834364, "event": "response"}, {"time": 283.4269179167459, "event": "done"}]}, {"trial": {"cue_direction": "left", "stimulus": "A|A", "correct_response": "f", "left_cue_condition": 0.9, "stimA_condition": 0.9, "response": "f", "performance": "Correct", "rt": 3.6392004166264087}, "events": [{"time": 283.4402818332892, "event": "initialize", "status": "ok"}, {"time": 283.44035366666503, "event": "start recording"}, {"time": 283.68267795827705, "event": "start"}, {"time": 283.6897155416664, "event": "show fixation"}, {"time": 284.195333374897, "event": "show cue"}, {"time": 285.70044991665054, "event": "show fixation"}, {"time": 286.2081547083799, "event": "start sound"}, {"time": 286.70835970831104, "event": "start decision window"}, {"time": 287.5887461666716, "event": "response"}, {"time": 289.8475465417141, "event": "done"}]}, {"trial": {"cue_direction": "left", "stimulus": "A|A", "correct_response": "f", "left_cue_condition": 0.9, "stimA_condition": 0.9, "response": "f", "performance": "Correct", "rt": 2.810685916803777}, "events": [{"time": 289.8607191666961, "event": "initialize", "status": "ok"}, {"time": 289.8607774999691, "event": "start recording"}, {"time": 290.09600575000513, "event": "start"}, {"time": 290.103161624982, "event": "show fixation"}, {"time": 290.6085987499682, "event": "show cue"}, {"time": 292.11337687494233, "event": "show fixation"}, {"time": 292.62113554170355, "event": "start sound"}, {"time": 293.1213742917171, "event": "start decision window"}, {"time": 293.5330947083421, "event": "response"}, {"time": 295.43203574989457, "event": "done"}]}, {"trial": {"cue_direction": "left", "stimulus": "A|A", "correct_response": "f", "left_cue_condition": 0.9, "stimA_condition": 0.9, "response": "f", "performance": "Correct", "rt": 2.9389014166081324}, "events": [{"time": 295.4452032917179, "event": "initialize", "status": "ok"}, {"time": 295.44527433335315, "event": "start recording"}, {"time": 295.68720774992835, "event": "start"}, {"time": 295.6944402917288, "event": "show fixation"}, {"time": 296.1999473333126, "event": "show cue"}, {"time": 297.7044528332772, "event": "show fixation"}, {"time": 298.2121588749578, "event": "start sound"}, {"time": 298.7123943333281, "event": "start decision window"}, {"time": 299.50103524990845, "event": "response"}, {"time": 301.1512687917566, "event": "done"}]}, {"trial": {"cue_direction": "left", "stimulus": "A|A", "correct_response": "f", "left_cue_condition": 0.9, "stimA_condition": 0.9, "response": "f", "performance": "Correct", "rt": 3.5416165000060573}, "events": [{"time": 301.1680670416681, "event": "initialize", "status": "ok"}, {"time": 301.16812104173005, "event": "start recording"}, {"time": 301.40925191668794, "event": "start"}, {"time": 301.4160408749012, "event": "show fixation"}, {"time": 301.9214263333706, "event": "show cue"}, {"time": 303.4264785833657, "event": "show fixation"}, {"time": 303.93443287489936, "event": "start sound"}, {"time": 304.43468754168134, "event": "start decision window"}, {"time": 305.53333208337426, "event": "response"}, {"time": 307.4762749999063, "event": "done"}]}, {"trial": {"cue_direction": "left", "stimulus": "A|B", "correct_response": "f", "left_cue_condition": 0.9, "stimA_condition": 0.9, "response": "f", "performance": "Correct", "rt": 4.0419843749841675}, "events": [{"time": 307.4902250833111, "event": "initialize", "status": "ok"}, {"time": 307.49028912500944, "event": "start recording"}, {"time": 307.73262945830356, "event": "start"}, {"time": 307.73995091672987, "event": "show fixation"}, {"time": 308.2452702498995, "event": "show cue"}, {"time": 309.7503340833355, "event": "show fixation"}, {"time": 310.2581594167277, "event": "start sound"}, {"time": 310.7583907917142, "event": "start decision window"}, {"time": 311.8133835833287, "event": "response"}, {"time": 314.30035608331673, "event": "done"}]}, {"trial": {"cue_direction": "left", "stimulus": "A|A", "correct_response": "f", "left_cue_condition": 0.9, "stimA_condition": 0.9, "response": "f", "performance": "Correct", "rt": 3.2818579166196287}, "events": [{"time": 314.3146627499955, "event": "initialize", "status": "ok"}, {"time": 314.3147335833637, "event": "start recording"}, {"time": 314.55565679166466, "event": "start"}, {"time": 314.56281941675115, "event": "show fixation"}, {"time": 315.06781358330045, "event": "show cue"}, {"time": 316.5728842499666, "event": "show fixation"}, {"time": 317.08318945835344, "event": "start sound"}, {"time": 317.5834180833772, "event": "start decision window"}, {"time": 317.8775459167082, "event": "response"}, {"time": 320.36525566666387, "event": "done"}]}, {"trial": {"cue_direction": "left", "stimulus": "A|B", "correct_response": "f", "left_cue_condition": 0.9, "stimA_condition": 0.9, "response": null, "performance": null, "rt": null}, "events": [{"time": 320.3790457083378, "event": "initialize", "status": "ok"}, {"time": 320.3791051666485, "event": "start recording"}, {"time": 320.62090687500313, "event": "start"}, {"time": 320.6280403332785, "event": "show fixation"}, {"time": 321.1329974998953, "event": "show cue"}, {"time": 322.63824645837303, "event": "show fixation"}, {"time": 323.1468880417524, "event": "start sound"}, {"time": 323.6471102082869, "event": "start decision window"}, {"time": 328.47886062494945, "event": "response"}, {"time": 328.47904787492007, "event": "done"}]}, {"trial": {"cue_direction": "right", "stimulus": "A|A", "correct_response": "f", "left_cue_condition": 0.9, "stimA_condition": 0.9, "response": "f", "performance": "Correct", "rt": 3.3955987084191293}, "events": [{"time": 328.4922547083115, "event": "initialize", "status": "ok"}, {"time": 328.49231929169036, "event": "start recording"}, {"time": 328.72665091673844, "event": "start"}, {"time": 328.73343233333435, "event": "show fixation"}, {"time": 329.23832587490324, "event": "show cue"}, {"time": 330.7427439999301, "event": "show fixation"}, {"time": 331.25031212496106, "event": "start sound"}, {"time": 331.7506090416573, "event": "start decision window"}, {"time": 332.5577818333404, "event": "response"}, {"time": 334.6461849582847, "event": "done"}]}, {"trial": {"cue_direction": "left", "stimulus": "A|A", "correct_response": "f", "left_cue_condition": 0.9, "stimA_condition": 0.9, "response": "f", "performance": "Correct", "rt": 3.853541791671887}, "events": [{"time": 334.6607855417533, "event": "initialize", "status": "ok"}, {"time": 334.6608449582709, "event": "start recording"}, {"time": 334.8996979999356, "event": "start"}, {"time": 334.906092958292, "event": "show fixation"}, {"time": 335.41017945832573, "event": "show cue"}, {"time": 336.91442020831164, "event": "show fixation"}, {"time": 337.4218656249577, "event": "start sound"}, {"time": 337.92209758330137, "event": "start decision window"}, {"time": 339.53386533330195, "event": "response"}, {"time": 341.2756276667351, "event": "done"}]}, {"trial": {"cue_direction": "left", "stimulus": "A|A", "correct_response": "f", "left_cue_condition": 0.9, "stimA_condition": 0.9, "response": "f", "performance": "Correct", "rt": 3.0308829999994487}, "events": [{"time": 341.2895061667077, "event": "initialize", "status": "ok"}, {"time": 341.2895680833608, "event": "start recording"}, {"time": 341.5317682499299, "event": "start"}, {"time": 341.5390254582744, "event": "show fixation"}, {"time": 342.04432824999094, "event": "show cue"}, {"time": 343.5487840833375, "event": "show fixation"}, {"time": 344.0592589583248, "event": "start sound"}, {"time": 344.5594627499813, "event": "start decision window"}, {"time": 345.02191145834513, "event": "response"}, {"time": 347.09034166671336, "event": "done"}]}, {"trial": {"cue_direction": "left", "stimulus": "A|A", "correct_response": "f", "left_cue_condition": 0.9, "stimA_condition": 0.9, "response": "f", "performance": "Correct", "rt": 3.846482750028372}, "events": [{"time": 347.1043304166524, "event": "initialize", "status": "ok"}, {"time": 347.10439312492963, "event": "start recording"}, {"time": 347.34059187490493, "event": "start"}, {"time": 347.3479936666554, "event": "show fixation"}, {"time": 347.8532136249123, "event": "show cue"}, {"time": 349.3581159999594, "event": "show fixation"}, {"time": 349.8679862082936, "event": "start sound"}, {"time": 350.36822075000964, "event": "start decision window"}, {"time": 351.7581459999783, "event": "response"}, {"time": 353.71467395836953, "event": "done"}]}, {"trial": {"cue_direction": "left", "stimulus": "A|A", "correct_response": "f", "left_cue_condition": 0.9, "stimA_condition": 0.9, "response": "f", "performance": "Correct", "rt": 4.261216541752219}, "events": [{"time": 353.728107083356, "event": "initialize", "status": "ok"}, {"time": 353.7281611249782, "event": "start recording"}, {"time": 353.966928583337, "event": "start"}, {"time": 353.97377308330033, "event": "show fixation"}, {"time": 354.47802004171535, "event": "show cue"}, {"time": 355.9828363333363, "event": "show fixation"}, {"time": 356.4936073749559, "event": "start sound"}, {"time": 356.99384766665753, "event": "start decision window"}, {"time": 358.37395616667345, "event": "response"}, {"time": 360.7550381249748, "event": "done"}]}, {"trial": {"cue_direction": "left", "stimulus": "A|A", "correct_response": "f", "left_cue_condition": 0.9, "stimA_condition": 0.9, "response": "f", "performance": "Correct", "rt": 3.108350666705519}, "events": [{"time": 360.7681812082883, "event": "initialize", "status": "ok"}, {"time": 360.7682435833849, "event": "start recording"}, {"time": 361.0081907917047, "event": "start"}, {"time": 361.01564374996815, "event": "show fixation"}, {"time": 361.5210994583322, "event": "show cue"}, {"time": 363.0261803333415, "event": "show fixation"}, {"time": 363.5339904166758, "event": "start sound"}, {"time": 364.0342468749732, "event": "start decision window"}, {"time": 365.08610241673887, "event": "response"}, {"time": 366.6425525000086, "event": "done"}]}, {"trial": {"cue_direction": "left", "stimulus": "A|A", "correct_response": "f", "left_cue_condition": 0.9, "stimA_condition": 0.9, "response": "f", "performance": "Correct", "rt": 4.3968029582174495}, "events": [{"time": 366.65614016668405, "event": "initialize", "status": "ok"}, {"time": 366.6562119167065, "event": "start recording"}, {"time": 366.88607024995144, "event": "start"}, {"time": 366.8929574167123, "event": "show fixation"}, {"time": 367.39715924998745, "event": "show cue"}, {"time": 368.9019186666701, "event": "show fixation"}, {"time": 369.4097649999894, "event": "start sound"}, {"time": 369.9100180417299, "event": "start decision window"}, {"time": 371.4941473749932, "event": "response"}, {"time": 373.80678712495137, "event": "done"}]}, {"trial": {"cue_direction": "left", "stimulus": "B|A", "correct_response": "j", "left_cue_condition": 0.9, "stimA_condition": 0.9, "response": "j", "performance": "Correct", "rt": 4.234818374970928}, "events": [{"time": 373.82035762490705, "event": "initialize", "status": "ok"}, {"time": 373.82041995832697, "event": "start recording"}, {"time": 374.06284425000194, "event": "start"}, {"time": 374.069505041698, "event": "show fixation"}, {"time": 374.57475629169494, "event": "show cue"}, {"time": 376.08066924999, "event": "show fixation"}, {"time": 376.5882878333796, "event": "start sound"}, {"time": 377.0885712916497, "event": "start decision window"}, {"time": 378.87046933337115, "event": "response"}, {"time": 380.8233685833402, "event": "done"}]}, {"trial": {"cue_direction": "left", "stimulus": "A|A", "correct_response": "f", "left_cue_condition": 0.9, "stimA_condition": 0.9, "response": "f", "performance": "Correct", "rt": 2.883273833314888}, "events": [{"time": 380.8366399167571, "event": "initialize", "status": "ok"}, {"time": 380.8367108749226, "event": "start recording"}, {"time": 381.07155524997506, "event": "start"}, {"time": 381.07919212500565, "event": "show fixation"}, {"time": 381.5846544166561, "event": "show cue"}, {"time": 383.08932199992705, "event": "show fixation"}, {"time": 383.5973331667483, "event": "start sound"}, {"time": 384.09754491667263, "event": "start decision window"}, {"time": 384.7825827082852, "event": "response"}, {"time": 386.480809749919, "event": "done"}]}, {"trial": {"cue_direction": "left", "stimulus": "A|A", "correct_response": "f", "left_cue_condition": 0.9, "stimA_condition": 0.9, "response": "f", "performance": "Correct", "rt": 2.644273749901913}, "events": [{"time": 386.4947853749618, "event": "initialize", "status": "ok"}, {"time": 386.494847666705, "event": "start recording"}, {"time": 386.73299720836803, "event": "start"}, {"time": 386.73796079168096, "event": "show fixation"}, {"time": 387.2433528333204, "event": "show cue"}, {"time": 388.74748087499756, "event": "show fixation"}, {"time": 389.2551313333679, "event": "start sound"}, {"time": 389.7553554166807, "event": "start decision window"}, {"time": 390.36677879164927, "event": "response"}, {"time": 391.8996126666898, "event": "done"}]}, {"trial": {"cue_direction": "left", "stimulus": "A|A", "correct_response": "f", "left_cue_condition": 0.9, "stimA_condition": 0.9, "response": "f", "performance": "Correct", "rt": 2.8399419999914244}, "events": [{"time": 391.9121569166891, "event": "initialize", "status": "ok"}, {"time": 391.9122183333384, "event": "start recording"}, {"time": 392.15414879168384, "event": "start"}, {"time": 392.16113754175603, "event": "show fixation"}, {"time": 392.6652208333835, "event": "show cue"}, {"time": 394.1704687917372, "event": "show fixation"}, {"time": 394.6800339167239, "event": "start sound"}, {"time": 395.1802554166643, "event": "start decision window"}, {"time": 395.71049162501004, "event": "response"}, {"time": 397.5201822082745, "event": "done"}]}, {"trial": {"cue_direction": "left", "stimulus": "A|B", "correct_response": "f", "left_cue_condition": 0.9, "stimA_condition": 0.5, "response": "f", "performance": "Correct", "rt": 5.666174791636877}, "events": [{"time": 548.5203276249813, "event": "initialize", "status": "ok"}, {"time": 548.520473791752, "event": "start recording"}, {"time": 548.7329667083686, "event": "start"}, {"time": 548.7433767083567, "event": "show fixation"}, {"time": 549.2482586667174, "event": "show cue"}, {"time": 550.7527507499326, "event": "show fixation"}, {"time": 551.262830874999, "event": "start sound"}, {"time": 551.7630504167173, "event": "start decision window"}, {"time": 554.6956405832898, "event": "response"}, {"time": 556.9291976249078, "event": "done"}]}, {"trial": {"cue_direction": "left", "stimulus": "A|B", "correct_response": "f", "left_cue_condition": 0.9, "stimA_condition": 0.5, "response": "f", "performance": "Correct", "rt": 2.486760916770436}, "events": [{"time": 556.9423689167015, "event": "initialize", "status": "ok"}, {"time": 556.9424318333622, "event": "start recording"}, {"time": 557.1824977083597, "event": "start"}, {"time": 557.1892588332994, "event": "show fixation"}, {"time": 557.6944503749255, "event": "show cue"}, {"time": 559.2009025833104, "event": "show fixation"}, {"time": 559.7085752499988, "event": "start sound"}, {"time": 560.2088182916632, "event": "start decision window"}, {"time": 560.600034999894, "event": "response"}, {"time": 562.1955479999306, "event": "done"}]}, {"trial": {"cue_direction": "left", "stimulus": "B|A", "correct_response": "j", "left_cue_condition": 0.9, "stimA_condition": 0.5, "response": "j", "performance": "Correct", "rt": 4.41523858346045}, "events": [{"time": 562.2085354167502, "event": "initialize", "status": "ok"}, {"time": 562.2085976249073, "event": "start recording"}, {"time": 562.4457283749944, "event": "start"}, {"time": 562.4525203333469, "event": "show fixation"}, {"time": 562.9573086249875, "event": "show cue"}, {"time": 564.4624871249544, "event": "show fixation"}, {"time": 564.9706317082746, "event": "start sound"}, {"time": 565.4708993333625, "event": "start decision window"}, {"time": 567.7123611249262, "event": "response"}, {"time": 569.3861163749825, "event": "done"}]}, {"trial": {"cue_direction": "left", "stimulus": "A|A", "correct_response": "f", "left_cue_condition": 0.9, "stimA_condition": 0.5, "response": "f", "performance": "Correct", "rt": 4.093680958379991}, "events": [{"time": 569.3993224999867, "event": "initialize", "status": "ok"}, {"time": 569.3993904999224, "event": "start recording"}, {"time": 569.6304484999273, "event": "start"}, {"time": 569.6372716249898, "event": "show fixation"}, {"time": 570.1425611666637, "event": "show cue"}, {"time": 571.6470652082935, "event": "show fixation"}, {"time": 572.1545625417493, "event": "start sound"}, {"time": 572.6548027083045, "event": "start decision window"}, {"time": 573.8162353333319, "event": "response"}, {"time": 576.2484480832936, "event": "done"}]}, {"trial": {"cue_direction": "left", "stimulus": "B|A", "correct_response": "j", "left_cue_condition": 0.9, "stimA_condition": 0.5, "response": "j", "performance": "Correct", "rt": 4.325864124926738}, "events": [{"time": 576.2621883749962, "event": "initialize", "status": "ok"}, {"time": 576.262257833383, "event": "start recording"}, {"time": 576.4923622916685, "event": "start"}, {"time": 576.4994169999845, "event": "show fixation"}, {"time": 577.0041663333541, "event": "show cue"}, {"time": 578.5085359166842, "event": "show fixation"}, {"time": 579.0159302499378, "event": "start sound"}, {"time": 579.5161591666983, "event": "start decision window"}, {"time": 580.9522874166723, "event": "response"}, {"time": 583.3420159582747, "event": "done"}]}, {"trial": {"cue_direction": "left", "stimulus": "B|A", "correct_response": "j", "left_cue_condition": 0.9, "stimA_condition": 0.5, "response": "j", "performance": "Correct", "rt": 4.56717416679021}, "events": [{"time": 583.3552370417165, "event": "initialize", "status": "ok"}, {"time": 583.3553074167576, "event": "start recording"}, {"time": 583.5906357499771, "event": "start"}, {"time": 583.5977920832811, "event": "show fixation"}, {"time": 584.102885958273, "event": "show cue"}, {"time": 585.6075846249005, "event": "show fixation"}, {"time": 586.1151507499162, "event": "start sound"}, {"time": 586.6153544166591, "event": "start decision window"}, {"time": 588.5684937082697, "event": "response"}, {"time": 590.682525041746, "event": "done"}]}, {"trial": {"cue_direction": "left", "stimulus": "B|B", "correct_response": "j", "left_cue_condition": 0.9, "stimA_condition": 0.5, "response": "j", "performance": "Correct", "rt": 3.304945208481513}, "events": [{"time": 590.6961348749464, "event": "initialize", "status": "ok"}, {"time": 590.6961972083664, "event": "start recording"}, {"time": 590.9310997916618, "event": "start"}, {"time": 590.9376923749223, "event": "show fixation"}, {"time": 591.4427282917313, "event": "show cue"}, {"time": 592.9472476249794, "event": "show fixation"}, {"time": 593.4554535832722, "event": "start sound"}, {"time": 593.9556603749515, "event": "start decision window"}, {"time": 594.9201499583432, "event": "response"}, {"time": 596.7605920833303, "event": "done"}]}, {"trial": {"cue_direction": "right", "stimulus": "A|A", "correct_response": "f", "left_cue_condition": 0.9, "stimA_condition": 0.5, "response": "f", "performance": "Correct", "rt": 3.457628666772507}, "events": [{"time": 596.7738779583015, "event": "initialize", "status": "ok"}, {"time": 596.7739431667142, "event": "start recording"}, {"time": 597.0112141666468, "event": "start"}, {"time": 597.018104958348, "event": "show fixation"}, {"time": 597.5227730417391, "event": "show cue"}, {"time": 599.0278548332863, "event": "show fixation"}, {"time": 599.5356200833339, "event": "start sound"}, {"time": 600.0358454999514, "event": "start decision window"}, {"time": 600.5528007916873, "event": "response"}, {"time": 602.9934502498945, "event": "done"}]}, {"trial": {"cue_direction": "left", "stimulus": "A|A", "correct_response": "f", "left_cue_condition": 0.9, "stimA_condition": 0.5, "response": "f", "performance": "Correct", "rt": 3.4509426667355}, "events": [{"time": 603.0062904999359, "event": "initialize", "status": "ok"}, {"time": 603.0063551666681, "event": "start recording"}, {"time": 603.2444107916672, "event": "start"}, {"time": 603.2496843333356, "event": "show fixation"}, {"time": 603.755569333327, "event": "show cue"}, {"time": 605.2602363749174, "event": "show fixation"}, {"time": 605.7680378332734, "event": "start sound"}, {"time": 606.2682770417305, "event": "start decision window"}, {"time": 607.6404020832852, "event": "response"}, {"time": 609.2191861666506, "event": "done"}]}, {"trial": {"cue_direction": "right", "stimulus": "B|B", "correct_response": "j", "left_cue_condition": 0.9, "stimA_condition": 0.5, "response": "j", "performance": "Correct", "rt": 2.1585961249656975}, "events": [{"time": 609.2327880833764, "event": "initialize", "status": "ok"}, {"time": 609.2328503750032, "event": "start recording"}, {"time": 609.4708226249786, "event": "start"}, {"time": 609.4776688748971, "event": "show fixation"}, {"time": 609.9828913332894, "event": "show cue"}, {"time": 611.4876389583806, "event": "show fixation"}, {"time": 611.9960073332768, "event": "start sound"}, {"time": 612.4962306667585, "event": "start decision window"}, {"time": 612.6486909999512, "event": "response"}, {"time": 614.1548172499752, "event": "done"}]}, {"trial": {"cue_direction": "right", "stimulus": "B|A", "correct_response": "f", "left_cue_condition": 0.9, "stimA_condition": 0.5, "response": "j", "performance": "Incorrect", "rt": 2.9243733750190586}, "events": [{"time": 614.1679060417227, "event": "initialize", "status": "ok"}, {"time": 614.1679665417178, "event": "start recording"}, {"time": 614.405801624991, "event": "start"}, {"time": 614.4131214999361, "event": "show fixation"}, {"time": 614.9184111667564, "event": "show cue"}, {"time": 616.4234437498963, "event": "show fixation"}, {"time": 616.9314854582772, "event": "start sound"}, {"time": 617.4317194583127, "event": "start decision window"}, {"time": 617.7206487082876, "event": "response"}, {"time": 619.8560867917258, "event": "done"}]}, {"trial": {"cue_direction": "left", "stimulus": "A|A", "correct_response": "f", "left_cue_condition": 0.9, "stimA_condition": 0.5, "response": "f", "performance": "Correct", "rt": 4.302854833193123}, "events": [{"time": 619.8698126666714, "event": "initialize", "status": "ok"}, {"time": 619.8698678750079, "event": "start recording"}, {"time": 620.1059234166751, "event": "start"}, {"time": 620.1133824583376, "event": "show fixation"}, {"time": 620.6185521667358, "event": "show cue"}, {"time": 622.1234903333243, "event": "show fixation"}, {"time": 622.6312231249176, "event": "start sound"}, {"time": 623.1314824166475, "event": "start decision window"}, {"time": 624.5208281667437, "event": "response"}, {"time": 626.9343042917317, "event": "done"}]}, {"trial": {"cue_direction": "left", "stimulus": "A|A", "correct_response": "f", "left_cue_condition": 0.9, "stimA_condition": 0.5, "response": "f", "performance": "Correct", "rt": 3.3898085833061486}, "events": [{"time": 626.9474572499748, "event": "initialize", "status": "ok"}, {"time": 626.947515958338, "event": "start recording"}, {"time": 627.1884629583219, "event": "start"}, {"time": 627.1960524166934, "event": "show fixation"}, {"time": 627.7017706667539, "event": "show cue"}, {"time": 629.2061249999097, "event": "show fixation"}, {"time": 629.713551666704, "event": "start sound"}, {"time": 630.2137769582914, "event": "start decision window"}, {"time": 630.897030916647, "event": "response"}, {"time": 633.1035539583536, "event": "done"}]}, {"trial": {"cue_direction": "left", "stimulus": "A|A", "correct_response": "f", "left_cue_condition": 0.9, "stimA_condition": 0.5, "response": "f", "performance": "Correct", "rt": 3.7451044167391956}, "events": [{"time": 633.1169578749686, "event": "initialize", "status": "ok"}, {"time": 633.1170177083695, "event": "start recording"}, {"time": 633.3541133749532, "event": "start"}, {"time": 633.3610729583306, "event": "show fixation"}, {"time": 633.8663538749097, "event": "show cue"}, {"time": 635.3712471249746, "event": "show fixation"}, {"time": 635.882003833307, "event": "start sound"}, {"time": 636.3822830832796, "event": "start decision window"}, {"time": 637.2730631666491, "event": "response"}, {"time": 639.627320666681, "event": "done"}]}, {"trial": {"cue_direction": "left", "stimulus": "A|A", "correct_response": "f", "left_cue_condition": 0.9, "stimA_condition": 0.5, "response": "f", "performance": "Correct", "rt": 3.3350473750615492}, "events": [{"time": 639.6404779583681, "event": "initialize", "status": "ok"}, {"time": 639.6405421249801, "event": "start recording"}, {"time": 639.8759242083179, "event": "start"}, {"time": 639.8834069999866, "event": "show fixation"}, {"time": 640.3886344583007, "event": "show cue"}, {"time": 641.8937382498989, "event": "show fixation"}, {"time": 642.4017339167185, "event": "start sound"}, {"time": 642.9019930833019, "event": "start decision window"}, {"time": 643.2410541666904, "event": "response"}, {"time": 645.7370047083823, "event": "done"}]}, {"trial": {"cue_direction": "left", "stimulus": "B|B", "correct_response": "j", "left_cue_condition": 0.9, "stimA_condition": 0.5, "response": "j", "performance": "Correct", "rt": 2.874193000025116}, "events": [{"time": 645.7508787499974, "event": "initialize", "status": "ok"}, {"time": 645.7509349166648, "event": "start recording"}, {"time": 645.9932651249692, "event": "start"}, {"time": 646.0000052083051, "event": "show fixation"}, {"time": 646.5051975416718, "event": "show cue"}, {"time": 648.0105663333088, "event": "show fixation"}, {"time": 648.5170967499726, "event": "start sound"}, {"time": 649.0173646666808, "event": "start decision window"}, {"time": 649.3772386667551, "event": "response"}, {"time": 651.3915000417037, "event": "done"}]}, {"trial": {"cue_direction": "right", "stimulus": "A|A", "correct_response": "f", "left_cue_condition": 0.9, "stimA_condition": 0.5, "response": "f", "performance": "Correct", "rt": 3.1617321249796078}, "events": [{"time": 651.4041966249933, "event": "initialize", "status": "ok"}, {"time": 651.4042624166468, "event": "start recording"}, {"time": 651.6134742082795, "event": "start"}, {"time": 651.6196574999485, "event": "show fixation"}, {"time": 652.1240980833536, "event": "show cue"}, {"time": 653.6280720416689, "event": "show fixation"}, {"time": 654.1356045417488, "event": "start sound"}, {"time": 654.6358322500018, "event": "start decision window"}, {"time": 654.9932791249594, "event": "response"}, {"time": 657.2975632917369, "event": "done"}]}, {"trial": {"cue_direction": "left", "stimulus": "B|B", "correct_response": "j", "left_cue_condition": 0.9, "stimA_condition": 0.5, "response": "j", "performance": "Correct", "rt": 3.2349785832921043}, "events": [{"time": 657.3109781249659, "event": "initialize", "status": "ok"}, {"time": 657.3110411666567, "event": "start recording"}, {"time": 657.5501762083732, "event": "start"}, {"time": 657.5578418333316, "event": "show fixation"}, {"time": 658.0632999583613, "event": "show cue"}, {"time": 659.5690283749718, "event": "show fixation"}, {"time": 660.075861249934, "event": "start sound"}, {"time": 660.5760674583726, "event": "start decision window"}, {"time": 661.0330504582962, "event": "response"}, {"time": 663.3110292499186, "event": "done"}]}, {"trial": {"cue_direction": "left", "stimulus": "A|A", "correct_response": "f", "left_cue_condition": 0.9, "stimA_condition": 0.5, "response": "f", "performance": "Correct", "rt": 3.5962381667923182}, "events": [{"time": 663.3244054167299, "event": "initialize", "status": "ok"}, {"time": 663.3244911249494, "event": "start recording"}, {"time": 663.5640254999744, "event": "start"}, {"time": 663.5706111249747, "event": "show fixation"}, {"time": 664.0758094167104, "event": "show cue"}, {"time": 665.5802528333152, "event": "show fixation"}, {"time": 666.0919859167188, "event": "start sound"}, {"time": 666.5922544999048, "event": "start decision window"}, {"time": 667.3214555833256, "event": "response"}, {"time": 669.6884781667031, "event": "done"}]}, {"trial": {"cue_direction": "left", "stimulus": "A|B", "correct_response": "f", "left_cue_condition": 0.9, "stimA_condition": 0.5, "response": "f", "performance": "Correct", "rt": 3.97120625001844}, "events": [{"time": 669.7019452499226, "event": "initialize", "status": "ok"}, {"time": 669.7020052083535, "event": "start recording"}, {"time": 669.9373221249552, "event": "start"}, {"time": 669.9440177083015, "event": "show fixation"}, {"time": 670.4491206249222, "event": "show cue"}, {"time": 671.9533534167567, "event": "show fixation"}, {"time": 672.4607849166496, "event": "start sound"}, {"time": 672.9610376666533, "event": "start decision window"}, {"time": 674.0815764999716, "event": "response"}, {"time": 676.4322119998978, "event": "done"}]}, {"trial": {"cue_direction": "left", "stimulus": "B|B", "correct_response": "j", "left_cue_condition": 0.9, "stimA_condition": 0.5, "response": "j", "performance": "Correct", "rt": 3.2962651249254122}, "events": [{"time": 676.4454237082973, "event": "initialize", "status": "ok"}, {"time": 676.4455836666748, "event": "start recording"}, {"time": 676.6846082499251, "event": "start"}, {"time": 676.6921060833847, "event": "show fixation"}, {"time": 677.196385874995, "event": "show cue"}, {"time": 678.7014247083571, "event": "show fixation"}, {"time": 679.2081631249748, "event": "start sound"}, {"time": 679.7084030833794, "event": "start decision window"}, {"time": 680.2253797083395, "event": "response"}, {"time": 682.5046420417493, "event": "done"}]}, {"trial": {"cue_direction": "left", "stimulus": "B|B", "correct_response": "j", "left_cue_condition": 0.9, "stimA_condition": 0.5, "response": "j", "performance": "Correct", "rt": 2.758124208310619}, "events": [{"time": 682.517836666666, "event": "initialize", "status": "ok"}, {"time": 682.5179089583689, "event": "start recording"}, {"time": 682.7605866667582, "event": "start"}, {"time": 682.7674155833665, "event": "show fixation"}, {"time": 683.2716174583184, "event": "show cue"}, {"time": 684.7759358333424, "event": "show fixation"}, {"time": 685.2823126249714, "event": "start sound"}, {"time": 685.782549458323, "event": "start decision window"}, {"time": 686.4895014583599, "event": "response"}, {"time": 688.0406619999558, "event": "done"}]}, {"trial": {"cue_direction": "right", "stimulus": "B|A", "correct_response": "f", "left_cue_condition": 0.9, "stimA_condition": 0.5, "response": "f", "performance": "Correct", "rt": 3.8108707499923185}, "events": [{"time": 688.0540051249554, "event": "initialize", "status": "ok"}, {"time": 688.0540622082772, "event": "start recording"}, {"time": 688.2908102499787, "event": "start"}, {"time": 688.2976022500079, "event": "show fixation"}, {"time": 688.8027377083199, "event": "show cue"}, {"time": 690.3078729583649, "event": "show fixation"}, {"time": 690.8157052499009, "event": "start sound"}, {"time": 691.3160070832819, "event": "start decision window"}, {"time": 692.3617825832916, "event": "response"}, {"time": 694.6268405832816, "event": "done"}]}, {"trial": {"cue_direction": "left", "stimulus": "B|A", "correct_response": "j", "left_cue_condition": 0.9, "stimA_condition": 0.5, "response": "j", "performance": "Correct", "rt": 4.332562374998815}, "events": [{"time": 694.6403085832717, "event": "initialize", "status": "ok"}, {"time": 694.6403689166764, "event": "start recording"}, {"time": 694.8784684167476, "event": "start"}, {"time": 694.8862757500028, "event": "show fixation"}, {"time": 695.3919369999785, "event": "show cue"}, {"time": 696.8967839167453, "event": "show fixation"}, {"time": 697.4044947499642, "event": "start sound"}, {"time": 697.9047379166586, "event": "start decision window"}, {"time": 699.6499528333079, "event": "response"}, {"time": 701.737285249983, "event": "done"}]}, {"trial": {"cue_direction": "left", "stimulus": "B|A", "correct_response": "j", "left_cue_condition": 0.9, "stimA_condition": 0.5, "response": "j", "performance": "Correct", "rt": 3.7287420416250825}, "events": [{"time": 701.7502784999087, "event": "initialize", "status": "ok"}, {"time": 701.7503407082986, "event": "start recording"}, {"time": 701.9883771666791, "event": "start"}, {"time": 701.9960090833483, "event": "show fixation"}, {"time": 702.5014269583626, "event": "show cue"}, {"time": 704.0056234999793, "event": "show fixation"}, {"time": 704.5129962082719, "event": "start sound"}, {"time": 705.0131916250102, "event": "start decision window"}, {"time": 706.5697448749561, "event": "response"}, {"time": 708.2419320832705, "event": "done"}]}, {"trial": {"cue_direction": "left", "stimulus": "B|A", "correct_response": "j", "left_cue_condition": 0.9, "stimA_condition": 0.5, "response": "j", "performance": "Correct", "rt": 3.8309764165896922}, "events": [{"time": 708.2555452917004, "event": "initialize", "status": "ok"}, {"time": 708.2556140833767, "event": "start recording"}, {"time": 708.4939940416953, "event": "start"}, {"time": 708.5007569167065, "event": "show fixation"}, {"time": 709.0055696249474, "event": "show cue"}, {"time": 710.5107959583402, "event": "show fixation"}, {"time": 711.0186206249055, "event": "start sound"}, {"time": 711.5188603749266, "event": "start decision window"}, {"time": 713.2577056667069, "event": "response"}, {"time": 714.8497993749334, "event": "done"}]}, {"trial": {"cue_direction": "left", "stimulus": "A|A", "correct_response": "f", "left_cue_condition": 0.9, "stimA_condition": 0.5, "response": "f", "performance": "Correct", "rt": 3.3585470415418968}, "events": [{"time": 714.8632766249357, "event": "initialize", "status": "ok"}, {"time": 714.8633547083009, "event": "start recording"}, {"time": 715.1043231249787, "event": "start"}, {"time": 715.1113949166611, "event": "show fixation"}, {"time": 715.6160507916939, "event": "show cue"}, {"time": 717.1208218333777, "event": "show fixation"}, {"time": 717.628797583282, "event": "start sound"}, {"time": 718.1290437083226, "event": "start decision window"}, {"time": 718.5381755416747, "event": "response"}, {"time": 720.9875627916772, "event": "done"}]}, {"trial": {"cue_direction": "left", "stimulus": "B|A", "correct_response": "j", "left_cue_condition": 0.9, "stimA_condition": 0.5, "response": "j", "performance": "Correct", "rt": 4.772856416646391}, "events": [{"time": 721.0011009166483, "event": "initialize", "status": "ok"}, {"time": 721.0011554582743, "event": "start recording"}, {"time": 721.2468282083282, "event": "start"}, {"time": 721.2538848749828, "event": "show fixation"}, {"time": 721.7593046666589, "event": "show cue"}, {"time": 723.2643104583258, "event": "show fixation"}, {"time": 723.771861541667, "event": "start sound"}, {"time": 724.2720954166725, "event": "start decision window"}, {"time": 726.5542369167088, "event": "response"}, {"time": 728.5449363333173, "event": "done"}]}, {"trial": {"cue_direction": "left", "stimulus": "B|B", "correct_response": "j", "left_cue_condition": 0.9, "stimA_condition": 0.5, "response": "j", "performance": "Correct", "rt": 2.6081767916912213}, "events": [{"time": 728.5581514167134, "event": "initialize", "status": "ok"}, {"time": 728.5582148333779, "event": "start recording"}, {"time": 728.798298583366, "event": "start"}, {"time": 728.8057361249812, "event": "show fixation"}, {"time": 729.3115576667478, "event": "show cue"}, {"time": 730.8171019583242, "event": "show fixation"}, {"time": 731.3239085833775, "event": "start sound"}, {"time": 731.8241494167596, "event": "start decision window"}, {"time": 732.4263029167196, "event": "response"}, {"time": 733.9322912499774, "event": "done"}]}, {"trial": {"cue_direction": "left", "stimulus": "B|B", "correct_response": "j", "left_cue_condition": 0.9, "stimA_condition": 0.5, "response": "j", "performance": "Correct", "rt": 3.9348494166042656}, "events": [{"time": 733.9468716249103, "event": "initialize", "status": "ok"}, {"time": 733.9469437083462, "event": "start recording"}, {"time": 734.1822748749983, "event": "start"}, {"time": 734.1892359582707, "event": "show fixation"}, {"time": 734.6941376249306, "event": "show cue"}, {"time": 736.1995166249108, "event": "show fixation"}, {"time": 736.7078470833367, "event": "start sound"}, {"time": 737.2080592083512, "event": "start decision window"}, {"time": 738.2345759166637, "event": "response"}, {"time": 740.6428953333525, "event": "done"}]}, {"trial": {"cue_direction": "right", "stimulus": "B|A", "correct_response": "f", "left_cue_condition": 0.3, "stimA_condition": 0.9, "response": "f", "performance": "Correct", "rt": 4.784335333388299}, "events": [{"time": 941.2599729166832, "event": "initialize", "status": "ok"}, {"time": 941.2601135417353, "event": "start recording"}, {"time": 941.4729194999672, "event": "start"}, {"time": 941.4822872083168, "event": "show fixation"}, {"time": 941.9865401666611, "event": "show cue"}, {"time": 943.4917333333287, "event": "show fixation"}, {"time": 944.0034037083387, "event": "start sound"}, {"time": 944.5036252499558, "event": "start decision window"}, {"time": 947.0581339166965, "event": "response"}, {"time": 948.7879484583391, "event": "done"}]}, {"trial": {"cue_direction": "right", "stimulus": "A|A", "correct_response": "f", "left_cue_condition": 0.3, "stimA_condition": 0.9, "response": "f", "performance": "Correct", "rt": 3.6631274584215134}, "events": [{"time": 948.8009342083242, "event": "initialize", "status": "ok"}, {"time": 948.8009961666539, "event": "start recording"}, {"time": 949.0368752917275, "event": "start"}, {"time": 949.0438248333521, "event": "show fixation"}, {"time": 949.5489358332707, "event": "show cue"}, {"time": 951.0529259999748, "event": "show fixation"}, {"time": 951.5656791249057, "event": "start sound"}, {"time": 952.0659115416929, "event": "start decision window"}, {"time": 953.514128583367, "event": "response"}, {"time": 955.2290202917065, "event": "done"}]}, {"trial": {"cue_direction": "right", "stimulus": "A|A", "correct_response": "f", "left_cue_condition": 0.3, "stimA_condition": 0.9, "response": "f", "performance": "Correct", "rt": 2.679339416557923}, "events": [{"time": 955.2427298749099, "event": "initialize", "status": "ok"}, {"time": 955.2427994166501, "event": "start recording"}, {"time": 955.4511218749685, "event": "start"}, {"time": 955.4574183749501, "event": "show fixation"}, {"time": 955.9618134999182, "event": "show cue"}, {"time": 957.4663621666841, "event": "show fixation"}, {"time": 957.9737982082879, "event": "start sound"}, {"time": 958.4740047917003, "event": "start decision window"}, {"time": 959.1221420833608, "event": "response"}, {"time": 960.6533399167238, "event": "done"}]}, {"trial": {"cue_direction": "left", "stimulus": "A|A", "correct_response": "f", "left_cue_condition": 0.3, "stimA_condition": 0.9, "response": "f", "performance": "Correct", "rt": 3.8650364584755152}, "events": [{"time": 960.667267874931, "event": "initialize", "status": "ok"}, {"time": 960.6673269167077, "event": "start recording"}, {"time": 960.9065902499715, "event": "start"}, {"time": 960.9133536666632, "event": "show fixation"}, {"time": 961.4184032083722, "event": "show cue"}, {"time": 962.9238242916763, "event": "show fixation"}, {"time": 963.4317248333246, "event": "start sound"}, {"time": 963.9319564166944, "event": "start decision window"}, {"time": 965.1624325417215, "event": "response"}, {"time": 967.2969817083795, "event": "done"}]}, {"trial": {"cue_direction": "left", "stimulus": "A|A", "correct_response": "f", "left_cue_condition": 0.3, "stimA_condition": 0.9, "response": "f", "performance": "Correct", "rt": 2.729161333409138}, "events": [{"time": 967.3101454999996, "event": "initialize", "status": "ok"}, {"time": 967.3102114999201, "event": "start recording"}, {"time": 967.5561090416741, "event": "start"}, {"time": 967.5637225416722, "event": "show fixation"}, {"time": 968.0696464583743, "event": "show cue"}, {"time": 969.5747485833708, "event": "show fixation"}, {"time": 970.0826589582721, "event": "start sound"}, {"time": 970.5828770833323, "event": "start decision window"}, {"time": 970.9223278749269, "event": "response"}, {"time": 972.812026083353, "event": "done"}]}, {"trial": {"cue_direction": "right", "stimulus": "B|A", "correct_response": "f", "left_cue_condition": 0.3, "stimA_condition": 0.9, "response": "j", "performance": "Incorrect", "rt": 2.756857416825369}, "events": [{"time": 972.8252225416945, "event": "initialize", "status": "ok"}, {"time": 972.8252823333023, "event": "start recording"}, {"time": 973.0621227916563, "event": "start"}, {"time": 973.0690182083054, "event": "show fixation"}, {"time": 973.5740280833561, "event": "show cue"}, {"time": 975.0785448333481, "event": "show fixation"}, {"time": 975.5858400417492, "event": "start sound"}, {"time": 976.0860874583013, "event": "start decision window"}, {"time": 976.4745009999024, "event": "response"}, {"time": 978.342935416731, "event": "done"}]}, {"trial": {"cue_direction": "right", "stimulus": "A|A", "correct_response": "f", "left_cue_condition": 0.3, "stimA_condition": 0.9, "response": "f", "performance": "Correct", "rt": 3.5689592083217576}, "events": [{"time": 978.3565354999155, "event": "initialize", "status": "ok"}, {"time": 978.3565965417074, "event": "start recording"}, {"time": 978.5955838332884, "event": "start"}, {"time": 978.6025494999485, "event": "show fixation"}, {"time": 979.1073259583209, "event": "show cue"}, {"time": 980.6123163333395, "event": "show fixation"}, {"time": 981.1203604582697, "event": "start sound"}, {"time": 981.620588458376, "event": "start decision window"}, {"time": 982.6582798333839, "event": "response"}, {"time": 984.6895323332865, "event": "done"}]}, {"trial": {"cue_direction": "left", "stimulus": "B|A", "correct_response": "j", "left_cue_condition": 0.3, "stimA_condition": 0.9, "response": "j", "performance": "Correct", "rt": 2.9565179999917746}, "events": [{"time": 984.7025664167013, "event": "initialize", "status": "ok"}, {"time": 984.7026345416671, "event": "start recording"}, {"time": 984.9379020832712, "event": "start"}, {"time": 984.9453904583352, "event": "show fixation"}, {"time": 985.4497362916591, "event": "show cue"}, {"time": 986.9542462083045, "event": "show fixation"}, {"time": 987.4618177916855, "event": "start sound"}, {"time": 987.9620539166499, "event": "start decision window"}, {"time": 988.5466544999508, "event": "response"}, {"time": 990.4185536666773, "event": "done"}]}, {"trial": {"cue_direction": "right", "stimulus": "A|A", "correct_response": "f", "left_cue_condition": 0.3, "stimA_condition": 0.9, "response": "f", "performance": "Correct", "rt": 3.433390333200805}, "events": [{"time": 990.432138791657, "event": "initialize", "status": "ok"}, {"time": 990.4321984166745, "event": "start recording"}, {"time": 990.6666756249033, "event": "start"}, {"time": 990.6739597499836, "event": "show fixation"}, {"time": 991.178918999969, "event": "show cue"}, {"time": 992.6838304583216, "event": "show fixation"}, {"time": 993.1917324999813, "event": "start sound"}, {"time": 993.6919625416631, "event": "start decision window"}, {"time": 994.698428166681, "event": "response"}, {"time": 996.625339833321, "event": "done"}]}, {"trial": {"cue_direction": "right", "stimulus": "B|A", "correct_response": "f", "left_cue_condition": 0.3, "stimA_condition": 0.9, "response": "j", "performance": "Incorrect", "rt": 3.479874916607514}, "events": [{"time": 996.638545249938, "event": "initialize", "status": "ok"}, {"time": 996.6386017916957, "event": "start recording"}, {"time": 996.8738647499122, "event": "start"}, {"time": 996.8810289583635, "event": "show fixation"}, {"time": 997.3863039166899, "event": "show cue"}, {"time": 998.8912429166958, "event": "show fixation"}, {"time": 999.3990062917583, "event": "start sound"}, {"time": 999.8992627917323, "event": "start decision window"}, {"time": 1000.3944636667147, "event": "response"}, {"time": 1002.8791329999221, "event": "done"}]}, {"trial": {"cue_direction": "right", "stimulus": "A|A", "correct_response": "f", "left_cue_condition": 0.3, "stimA_condition": 0.9, "response": "f", "performance": "Correct", "rt": 4.231784333358519}, "events": [{"time": 1002.8927770833252, "event": "initialize", "status": "ok"}, {"time": 1002.8928339999402, "event": "start recording"}, {"time": 1003.1280699167401, "event": "start"}, {"time": 1003.1352637083037, "event": "show fixation"}, {"time": 1003.6406038749265, "event": "show cue"}, {"time": 1005.1456367917126, "event": "show fixation"}, {"time": 1005.6535189999267, "event": "start sound"}, {"time": 1006.1537709583063, "event": "start decision window"}, {"time": 1007.4025660000043, "event": "response"}, {"time": 1009.8855485416716, "event": "done"}]}, {"trial": {"cue_direction": "right", "stimulus": "A|A", "correct_response": "f", "left_cue_condition": 0.3, "stimA_condition": 0.9, "response": "f", "performance": "Correct", "rt": 2.936981124919839}, "events": [{"time": 1009.8983117499156, "event": "initialize", "status": "ok"}, {"time": 1009.8983733332716, "event": "start recording"}, {"time": 1010.1394097916782, "event": "start"}, {"time": 1010.1465574166505, "event": "show fixation"}, {"time": 1010.6518447917188, "event": "show cue"}, {"time": 1012.1577069583582, "event": "show fixation"}, {"time": 1012.6655857916921, "event": "start sound"}, {"time": 1013.1658193749608, "event": "start decision window"}, {"time": 1013.3308056667447, "event": "response"}, {"time": 1015.6027731667273, "event": "done"}]}, {"trial": {"cue_direction": "right", "stimulus": "B|A", "correct_response": "f", "left_cue_condition": 0.3, "stimA_condition": 0.9, "response": "j", "performance": "Incorrect", "rt": 3.409451000043191}, "events": [{"time": 1015.6165549999569, "event": "initialize", "status": "ok"}, {"time": 1015.6166154999519, "event": "start recording"}, {"time": 1015.8547272917349, "event": "start"}, {"time": 1015.8624757083599, "event": "show fixation"}, {"time": 1016.3679923749296, "event": "show cue"}, {"time": 1017.8733381667407, "event": "show fixation"}, {"time": 1018.3809842083137, "event": "start sound"}, {"time": 1018.8811886666808, "event": "start decision window"}, {"time": 1019.4587293333607, "event": "response"}, {"time": 1021.7906374583254, "event": "done"}]}, {"trial": {"cue_direction": "left", "stimulus": "A|A", "correct_response": "f", "left_cue_condition": 0.3, "stimA_condition": 0.9, "response": "f", "performance": "Correct", "rt": 2.9684622082859278}, "events": [{"time": 1021.8036497082794, "event": "initialize", "status": "ok"}, {"time": 1021.8037020417396, "event": "start recording"}, {"time": 1022.038570625009, "event": "start"}, {"time": 1022.0449092083145, "event": "show fixation"}, {"time": 1022.5491491249995, "event": "show cue"}, {"time": 1024.0534877500031, "event": "show fixation"}, {"time": 1024.56121779175, "event": "start sound"}, {"time": 1025.0614809166873, "event": "start decision window"}, {"time": 1025.5391100416891, "event": "response"}, {"time": 1027.5299353332957, "event": "done"}]}, {"trial": {"cue_direction": "left", "stimulus": "A|A", "correct_response": "f", "left_cue_condition": 0.3, "stimA_condition": 0.9, "response": "f", "performance": "Correct", "rt": 2.1553393750218675}, "events": [{"time": 1027.543938458315, "event": "initialize", "status": "ok"}, {"time": 1027.5439984583063, "event": "start recording"}, {"time": 1027.7825967917452, "event": "start"}, {"time": 1027.7903279167367, "event": "show fixation"}, {"time": 1028.2959737917408, "event": "show cue"}, {"time": 1029.8012155833421, "event": "show fixation"}, {"time": 1030.3090402083471, "event": "start sound"}, {"time": 1030.8092607917497, "event": "start decision window"}, {"time": 1030.8193500000052, "event": "response"}, {"time": 1032.4645948749967, "event": "done"}]}, {"trial": {"cue_direction": "right", "stimulus": "A|A", "correct_response": "f", "left_cue_condition": 0.3, "stimA_condition": 0.9, "response": "f", "performance": "Correct", "rt": 2.196257625008002}, "events": [{"time": 1032.478659458342, "event": "initialize", "status": "ok"}, {"time": 1032.4787187082693, "event": "start recording"}, {"time": 1032.7182594999904, "event": "start"}, {"time": 1032.725520833279, "event": "show fixation"}, {"time": 1033.2303406667197, "event": "show cue"}, {"time": 1034.7349532917142, "event": "show fixation"}, {"time": 1035.246008916758, "event": "start sound"}, {"time": 1035.7462478749221, "event": "start decision window"}, {"time": 1035.8990766250063, "event": "response"}, {"time": 1037.4424758749083, "event": "done"}]}, {"trial": {"cue_direction": "right", "stimulus": "A|A", "correct_response": "f", "left_cue_condition": 0.3, "stimA_condition": 0.9, "response": "f", "performance": "Correct", "rt": 3.8150250415783376}, "events": [{"time": 1037.4559200833319, "event": "initialize", "status": "ok"}, {"time": 1037.4559990416747, "event": "start recording"}, {"time": 1037.695443250006, "event": "start"}, {"time": 1037.702480833279, "event": "show fixation"}, {"time": 1038.2080031249207, "event": "show cue"}, {"time": 1039.7124745417386, "event": "show fixation"}, {"time": 1040.2200074583525, "event": "start sound"}, {"time": 1040.720230958308, "event": "start decision window"}, {"time": 1041.810966124991, "event": "response"}, {"time": 1044.03523566667, "event": "done"}]}, {"trial": {"cue_direction": "right", "stimulus": "A|A", "correct_response": "f", "left_cue_condition": 0.3, "stimA_condition": 0.9, "response": "f", "performance": "Correct", "rt": 3.4571500833844766}, "events": [{"time": 1044.0485283749877, "event": "initialize", "status": "ok"}, {"time": 1044.0486122083385, "event": "start recording"}, {"time": 1044.298190666712, "event": "start"}, {"time": 1044.3057955417316, "event": "show fixation"}, {"time": 1044.8112498333212, "event": "show cue"}, {"time": 1046.3151217916748, "event": "show fixation"}, {"time": 1046.8341105417348, "event": "start sound"}, {"time": 1047.3343559582718, "event": "start decision window"}, {"time": 1048.4190204166807, "event": "response"}, {"time": 1050.2914959583431, "event": "done"}]}, {"trial": {"cue_direction": "right", "stimulus": "A|A", "correct_response": "f", "left_cue_condition": 0.3, "stimA_condition": 0.9, "response": "f", "performance": "Correct", "rt": 3.20561025000643}, "events": [{"time": 1050.3055319999112, "event": "initialize", "status": "ok"}, {"time": 1050.3055846249918, "event": "start recording"}, {"time": 1050.5406925417483, "event": "start"}, {"time": 1050.5480392082827, "event": "show fixation"}, {"time": 1051.05340170837, "event": "show cue"}, {"time": 1052.5582169583067, "event": "show fixation"}, {"time": 1053.065906041651, "event": "start sound"}, {"time": 1053.566141083371, "event": "start decision window"}, {"time": 1053.8430455416674, "event": "response"}, {"time": 1056.271732958383, "event": "done"}]}, {"trial": {"cue_direction": "left", "stimulus": "A|A", "correct_response": "f", "left_cue_condition": 0.3, "stimA_condition": 0.9, "response": "f", "performance": "Correct", "rt": 2.980146916816011}, "events": [{"time": 1056.2855360832764, "event": "initialize", "status": "ok"}, {"time": 1056.2855950833764, "event": "start recording"}, {"time": 1056.4941152499523, "event": "start"}, {"time": 1056.5002784166718, "event": "show fixation"}, {"time": 1057.0052707917057, "event": "show cue"}, {"time": 1058.5101771249902, "event": "show fixation"}, {"time": 1059.0181793333031, "event": "start sound"}, {"time": 1059.5184185833205, "event": "start decision window"}, {"time": 1059.6113636667142, "event": "response"}, {"time": 1061.9985377499834, "event": "done"}]}, {"trial": {"cue_direction": "right", "stimulus": "A|A", "correct_response": "f", "left_cue_condition": 0.3, "stimA_condition": 0.9, "response": "f", "performance": "Correct", "rt": 3.1282596250530332}, "events": [{"time": 1062.0113637082977, "event": "initialize", "status": "ok"}, {"time": 1062.0114207499428, "event": "start recording"}, {"time": 1062.2491517916787, "event": "start"}, {"time": 1062.2567744583357, "event": "show fixation"}, {"time": 1062.7624537500087, "event": "show cue"}, {"time": 1064.2664472917095, "event": "show fixation"}, {"time": 1064.7743180833058, "event": "start sound"}, {"time": 1065.2745429999195, "event": "start decision window"}, {"time": 1065.4114998748992, "event": "response"}, {"time": 1067.9027944583213, "event": "done"}]}, {"trial": {"cue_direction": "right", "stimulus": "A|A", "correct_response": "f", "left_cue_condition": 0.3, "stimA_condition": 0.9, "response": "f", "performance": "Correct", "rt": 2.6004091249778867}, "events": [{"time": 1067.9160089583602, "event": "initialize", "status": "ok"}, {"time": 1067.9160865417216, "event": "start recording"}, {"time": 1068.123196749948, "event": "start"}, {"time": 1068.129499875009, "event": "show fixation"}, {"time": 1068.6335782082751, "event": "show cue"}, {"time": 1070.138032041723, "event": "show fixation"}, {"time": 1070.6456078332849, "event": "start sound"}, {"time": 1071.1458482499002, "event": "start decision window"}, {"time": 1071.1955111667048, "event": "response"}, {"time": 1073.246229249984, "event": "done"}]}, {"trial": {"cue_direction": "left", "stimulus": "A|A", "correct_response": "f", "left_cue_condition": 0.3, "stimA_condition": 0.9, "response": "f", "performance": "Correct", "rt": 2.962846874957904}, "events": [{"time": 1073.259671124979, "event": "initialize", "status": "ok"}, {"time": 1073.2597333333688, "event": "start recording"}, {"time": 1073.486770749907, "event": "start"}, {"time": 1073.493960541673, "event": "show fixation"}, {"time": 1073.9992692917585, "event": "show cue"}, {"time": 1075.5037756667007, "event": "show fixation"}, {"time": 1076.0129517082823, "event": "start sound"}, {"time": 1076.5131909167394, "event": "start decision window"}, {"time": 1076.707631666679, "event": "response"}, {"time": 1078.9760039999383, "event": "done"}]}, {"trial": {"cue_direction": "right", "stimulus": "A|A", "correct_response": "f", "left_cue_condition": 0.3, "stimA_condition": 0.9, "response": "f", "performance": "Correct", "rt": 4.2409110417356715}, "events": [{"time": 1078.9889082500013, "event": "initialize", "status": "ok"}, {"time": 1078.9889620833565, "event": "start recording"}, {"time": 1079.2257264583604, "event": "start"}, {"time": 1079.230705624912, "event": "show fixation"}, {"time": 1079.7362751667388, "event": "show cue"}, {"time": 1081.2419230417581, "event": "show fixation"}, {"time": 1081.7495101249078, "event": "start sound"}, {"time": 1082.2497267917497, "event": "start decision window"}, {"time": 1083.571444958332, "event": "response"}, {"time": 1085.9906150833704, "event": "done"}]}, {"trial": {"cue_direction": "left", "stimulus": "A|A", "correct_response": "f", "left_cue_condition": 0.3, "stimA_condition": 0.9, "response": "f", "performance": "Correct", "rt": 2.902091333293356}, "events": [{"time": 1086.0037996666506, "event": "initialize", "status": "ok"}, {"time": 1086.0038704999024, "event": "start recording"}, {"time": 1086.2424002083717, "event": "start"}, {"time": 1086.249612041749, "event": "show fixation"}, {"time": 1086.7548145833425, "event": "show cue"}, {"time": 1088.2595876249252, "event": "show fixation"}, {"time": 1088.767311666743, "event": "start sound"}, {"time": 1089.2680760832736, "event": "start decision window"}, {"time": 1089.9874895417597, "event": "response"}, {"time": 1091.669636833365, "event": "done"}]}, {"trial": {"cue_direction": "left", "stimulus": "B|A", "correct_response": "j", "left_cue_condition": 0.3, "stimA_condition": 0.9, "response": "f", "performance": "Incorrect", "rt": 4.441678208298981}, "events": [{"time": 1091.6823783332948, "event": "initialize", "status": "ok"}, {"time": 1091.6824406249216, "event": "start recording"}, {"time": 1091.919690083363, "event": "start"}, {"time": 1091.9263237083796, "event": "show fixation"}, {"time": 1092.4312727083452, "event": "show cue"}, {"time": 1093.9357171667507, "event": "show fixation"}, {"time": 1094.4430889582727, "event": "start sound"}, {"time": 1094.9433231248986, "event": "start decision window"}, {"time": 1097.083833624958, "event": "response"}, {"time": 1098.884976750007, "event": "done"}]}, {"trial": {"cue_direction": "right", "stimulus": "A|A", "correct_response": "f", "left_cue_condition": 0.3, "stimA_condition": 0.9, "response": "f", "performance": "Correct", "rt": 4.247105416608974}, "events": [{"time": 1098.8984891667496, "event": "initialize", "status": "ok"}, {"time": 1098.8985572917154, "event": "start recording"}, {"time": 1099.1339978333563, "event": "start"}, {"time": 1099.1408093749778, "event": "show fixation"}, {"time": 1099.6455912917154, "event": "show cue"}, {"time": 1101.1502096249023, "event": "show fixation"}, {"time": 1101.6581123332726, "event": "start sound"}, {"time": 1102.158356583328, "event": "start decision window"}, {"time": 1103.6599688749993, "event": "response"}, {"time": 1105.905426958343, "event": "done"}]}, {"trial": {"cue_direction": "right", "stimulus": "A|A", "correct_response": "f", "left_cue_condition": 0.3, "stimA_condition": 0.9, "response": "f", "performance": "Correct", "rt": 2.646514333318919}, "events": [{"time": 1105.9189618333476, "event": "initialize", "status": "ok"}, {"time": 1105.9190523748985, "event": "start recording"}, {"time": 1106.1542024583323, "event": "start"}, {"time": 1106.159422833356, "event": "show fixation"}, {"time": 1106.6649245417211, "event": "show cue"}, {"time": 1108.169024999952, "event": "show fixation"}, {"time": 1108.6764824999264, "event": "start sound"}, {"time": 1109.1767114583636, "event": "start decision window"}, {"time": 1109.6599864166928, "event": "response"}, {"time": 1111.3231950832997, "event": "done"}]}, {"trial": {"cue_direction": "right", "stimulus": "A|A", "correct_response": "f", "left_cue_condition": 0.3, "stimA_condition": 0.9, "response": "f", "performance": "Correct", "rt": 3.636146583245136}, "events": [{"time": 1111.337107166648, "event": "initialize", "status": "ok"}, {"time": 1111.3371672083158, "event": "start recording"}, {"time": 1111.5794792500092, "event": "start"}, {"time": 1111.5866474999348, "event": "show fixation"}, {"time": 1112.091929791728, "event": "show cue"}, {"time": 1113.5967394999461, "event": "show fixation"}, {"time": 1114.1047558332793, "event": "start sound"}, {"time": 1114.6050701249624, "event": "start decision window"}, {"time": 1115.6999334583525, "event": "response"}, {"time": 1117.7411844166927, "event": "done"}]}, {"trial": {"cue_direction": "right", "stimulus": "A|A", "correct_response": "f", "left_cue_condition": 0.3, "stimA_condition": 0.9, "response": "f", "performance": "Correct", "rt": 2.4511242917506024}, "events": [{"time": 1117.7545913333306, "event": "initialize", "status": "ok"}, {"time": 1117.7546609999845, "event": "start recording"}, {"time": 1117.9881227082806, "event": "start"}, {"time": 1117.9941455416847, "event": "show fixation"}, {"time": 1118.4990629582899, "event": "show cue"}, {"time": 1120.0035625833552, "event": "show fixation"}, {"time": 1120.5134496666724, "event": "start sound"}, {"time": 1121.0136798333842, "event": "start decision window"}, {"time": 1121.292190374923, "event": "response"}, {"time": 1122.9647718332708, "event": "done"}]}, {"trial": {"cue_direction": "left", "stimulus": "A|A", "correct_response": "f", "left_cue_condition": 0.5, "stimA_condition": 0.5, "response": "f", "performance": "Correct", "rt": 4.042333458201028}, "events": [{"time": 1297.7230024583405, "event": "initialize", "status": "ok"}, {"time": 1297.7231497083558, "event": "start recording"}, {"time": 1297.9241349999793, "event": "start"}, {"time": 1297.9295303749386, "event": "show fixation"}, {"time": 1298.4345854583662, "event": "show cue"}, {"time": 1299.9386284999782, "event": "show fixation"}, {"time": 1300.4492765832692, "event": "start sound"}, {"time": 1300.9495142083615, "event": "start decision window"}, {"time": 1302.3959852916887, "event": "response"}, {"time": 1304.4918227082817, "event": "done"}]}, {"trial": {"cue_direction": "left", "stimulus": "A|B", "correct_response": "f", "left_cue_condition": 0.5, "stimA_condition": 0.5, "response": "f", "performance": "Correct", "rt": 3.857172583346255}, "events": [{"time": 1304.5051062499406, "event": "initialize", "status": "ok"}, {"time": 1304.5051709583495, "event": "start recording"}, {"time": 1304.7432625417132, "event": "start"}, {"time": 1304.750396083342, "event": "show fixation"}, {"time": 1305.2558379167458, "event": "show cue"}, {"time": 1306.762726541725, "event": "show fixation"}, {"time": 1307.2721635417547, "event": "start sound"}, {"time": 1307.7723914999515, "event": "start decision window"}, {"time": 1309.3722452917136, "event": "response"}, {"time": 1311.1295333333546, "event": "done"}]}, {"trial": {"cue_direction": "left", "stimulus": "A|A", "correct_response": "f", "left_cue_condition": 0.5, "stimA_condition": 0.5, "response": "f", "performance": "Correct", "rt": 3.290837833308615}, "events": [{"time": 1311.1418513333192, "event": "initialize", "status": "ok"}, {"time": 1311.1419247917365, "event": "start recording"}, {"time": 1311.38048612501, "event": "start"}, {"time": 1311.3880671666702, "event": "show fixation"}, {"time": 1311.8922787499614, "event": "show cue"}, {"time": 1313.3966033749748, "event": "show fixation"}, {"time": 1313.90404424991, "event": "start sound"}, {"time": 1314.4042574582854, "event": "start decision window"}, {"time": 1314.7082911666948, "event": "response"}, {"time": 1317.1950878750067, "event": "done"}]}, {"trial": {"cue_direction": "left", "stimulus": "B|B", "correct_response": "j", "left_cue_condition": 0.5, "stimA_condition": 0.5, "response": "j", "performance": "Correct", "rt": 4.196172625059262}, "events": [{"time": 1317.2080967499642, "event": "initialize", "status": "ok"}, {"time": 1317.2081582499668, "event": "start recording"}, {"time": 1317.4507241667015, "event": "start"}, {"time": 1317.457461666665, "event": "show fixation"}, {"time": 1317.9626966249198, "event": "show cue"}, {"time": 1319.4679189999588, "event": "show fixation"}, {"time": 1319.9762462916551, "event": "start sound"}, {"time": 1320.4764557083836, "event": "start decision window"}, {"time": 1322.4121297916863, "event": "response"}, {"time": 1324.17261816666, "event": "done"}]}, {"trial": {"cue_direction": "left", "stimulus": "B|B", "correct_response": "j", "left_cue_condition": 0.5, "stimA_condition": 0.5, "response": "j", "performance": "Correct", "rt": 2.8815210832981393}, "events": [{"time": 1324.1860104167135, "event": "initialize", "status": "ok"}, {"time": 1324.1860623749672, "event": "start recording"}, {"time": 1324.423199874931, "event": "start"}, {"time": 1324.4307500417344, "event": "show fixation"}, {"time": 1324.9368633748963, "event": "show cue"}, {"time": 1326.4419152499177, "event": "show fixation"}, {"time": 1326.9482205833774, "event": "start sound"}, {"time": 1327.4484449167503, "event": "start decision window"}, {"time": 1327.7964332499541, "event": "response"}, {"time": 1329.8299338333309, "event": "done"}]}, {"trial": {"cue_direction": "right", "stimulus": "A|A", "correct_response": "f", "left_cue_condition": 0.5, "stimA_condition": 0.5, "response": "f", "performance": "Correct", "rt": 3.7848131667124107}, "events": [{"time": 1329.8434855833184, "event": "initialize", "status": "ok"}, {"time": 1329.8435402082978, "event": "start recording"}, {"time": 1330.0826451666653, "event": "start"}, {"time": 1330.0894433333306, "event": "show fixation"}, {"time": 1330.5947078333702, "event": "show cue"}, {"time": 1332.099027874996, "event": "show fixation"}, {"time": 1332.607751833275, "event": "start sound"}, {"time": 1333.1079526249086, "event": "start decision window"}, {"time": 1334.4842759167077, "event": "response"}, {"time": 1336.3927633749554, "event": "done"}]}, {"trial": {"cue_direction": "right", "stimulus": "A|B", "correct_response": "j", "left_cue_condition": 0.5, "stimA_condition": 0.5, "response": "j", "performance": "Correct", "rt": 2.9622017916990444}, "events": [{"time": 1336.406701708329, "event": "initialize", "status": "ok"}, {"time": 1336.4067639167188, "event": "start recording"}, {"time": 1336.647726874915, "event": "start"}, {"time": 1336.6538994999137, "event": "show fixation"}, {"time": 1337.159440874937, "event": "show cue"}, {"time": 1338.6644509999314, "event": "show fixation"}, {"time": 1339.1748024583794, "event": "start sound"}, {"time": 1339.6750135417096, "event": "start decision window"}, {"time": 1340.3725461666472, "event": "response"}, {"time": 1342.1372059999267, "event": "done"}]}, {"trial": {"cue_direction": "right", "stimulus": "A|B", "correct_response": "j", "left_cue_condition": 0.5, "stimA_condition": 0.5, "response": "j", "performance": "Correct", "rt": 2.973795416764915}, "events": [{"time": 1342.1504218332702, "event": "initialize", "status": "ok"}, {"time": 1342.1504843749572, "event": "start recording"}, {"time": 1342.3863059583819, "event": "start"}, {"time": 1342.3938839583425, "event": "show fixation"}, {"time": 1342.8990767083596, "event": "show cue"}, {"time": 1344.4038424999453, "event": "show fixation"}, {"time": 1344.9113301667385, "event": "start sound"}, {"time": 1345.4115357083501, "event": "start decision window"}, {"time": 1346.0844966250006, "event": "response"}, {"time": 1347.8853269999381, "event": "done"}]}, {"trial": {"cue_direction": "right", "stimulus": "B|A", "correct_response": "f", "left_cue_condition": 0.5, "stimA_condition": 0.5, "response": "f", "performance": "Correct", "rt": 4.445621000020765}, "events": [{"time": 1347.898625791655, "event": "initialize", "status": "ok"}, {"time": 1347.8986809999915, "event": "start recording"}, {"time": 1348.1352677083341, "event": "start"}, {"time": 1348.142742624972, "event": "show fixation"}, {"time": 1348.6486002499005, "event": "show cue"}, {"time": 1350.1534224583302, "event": "show fixation"}, {"time": 1350.6611132082762, "event": "start sound"}, {"time": 1351.1613425833639, "event": "start decision window"}, {"time": 1353.1006274999818, "event": "response"}, {"time": 1355.106935708318, "event": "done"}]}, {"trial": {"cue_direction": "left", "stimulus": "B|A", "correct_response": "j", "left_cue_condition": 0.5, "stimA_condition": 0.5, "response": null, "performance": null, "rt": null}, "events": [{"time": 1355.1205966249108, "event": "initialize", "status": "ok"}, {"time": 1355.1206560416613, "event": "start recording"}, {"time": 1355.3601665833266, "event": "start"}, {"time": 1355.3669513749192, "event": "show fixation"}, {"time": 1355.8717612499604, "event": "show cue"}, {"time": 1357.3767034999328, "event": "show fixation"}, {"time": 1357.8843638749095, "event": "start sound"}, {"time": 1358.3845805833116, "event": "start decision window"}, {"time": 1363.186057166662, "event": "response"}, {"time": 1363.186268416699, "event": "done"}]}, {"trial": {"cue_direction": "right", "stimulus": "A|A", "correct_response": "f", "left_cue_condition": 0.5, "stimA_condition": 0.5, "response": "f", "performance": "Correct", "rt": 2.7345953750191256}, "events": [{"time": 1363.1996619999409, "event": "initialize", "status": "ok"}, {"time": 1363.1997272083536, "event": "start recording"}, {"time": 1363.4364662083099, "event": "start"}, {"time": 1363.4442786249565, "event": "show fixation"}, {"time": 1363.948823291692, "event": "show cue"}, {"time": 1365.4536356667522, "event": "show fixation"}, {"time": 1365.961458249949, "event": "start sound"}, {"time": 1366.461686291732, "event": "start decision window"}, {"time": 1366.9247849583626, "event": "response"}, {"time": 1368.6962534999475, "event": "done"}]}, {"trial": {"cue_direction": "left", "stimulus": "B|A", "correct_response": "j", "left_cue_condition": 0.5, "stimA_condition": 0.5, "response": null, "performance": null, "rt": null}, "events": [{"time": 1368.7097162499558, "event": "initialize", "status": "ok"}, {"time": 1368.7097893749597, "event": "start recording"}, {"time": 1368.946655458305, "event": "start"}, {"time": 1368.9537525833584, "event": "show fixation"}, {"time": 1369.4586283749668, "event": "show cue"}, {"time": 1370.9630611666944, "event": "show fixation"}, {"time": 1371.4701955417404, "event": "start sound"}, {"time": 1371.9704224999296, "event": "start decision window"}, {"time": 1377.2182822916657, "event": "response"}, {"time": 1377.2184576666914, "event": "done"}]}, {"trial": {"cue_direction": "left", "stimulus": "A|A", "correct_response": "f", "left_cue_condition": 0.5, "stimA_condition": 0.5, "response": "f", "performance": "Correct", "rt": 2.2948392083635554}, "events": [{"time": 1377.2315883749397, "event": "initialize", "status": "ok"}, {"time": 1377.23166125, "event": "start recording"}, {"time": 1377.4587179583032, "event": "start"}, {"time": 1377.4663969583344, "event": "show fixation"}, {"time": 1377.9715614999877, "event": "show cue"}, {"time": 1379.4759234999074, "event": "show fixation"}, {"time": 1379.9835402499884, "event": "start sound"}, {"time": 1380.4837554999394, "event": "start decision window"}, {"time": 1380.7169269999722, "event": "response"}, {"time": 1382.278575583361, "event": "done"}]}, {"trial": {"cue_direction": "right", "stimulus": "B|A", "correct_response": "f", "left_cue_condition": 0.5, "stimA_condition": 0.5, "response": "f", "performance": "Correct", "rt": 4.601417750003748}, "events": [{"time": 1382.2923657499487, "event": "initialize", "status": "ok"}, {"time": 1382.2924182499992, "event": "start recording"}, {"time": 1382.531497833319, "event": "start"}, {"time": 1382.5384646249004, "event": "show fixation"}, {"time": 1383.0433554999763, "event": "show cue"}, {"time": 1384.5483144583413, "event": "show fixation"}, {"time": 1385.0599142499268, "event": "start sound"}, {"time": 1385.5601117917104, "event": "start decision window"}, {"time": 1387.5250548332697, "event": "response"}, {"time": 1389.6615241667023, "event": "done"}]}, {"trial": {"cue_direction": "left", "stimulus": "B|B", "correct_response": "j", "left_cue_condition": 0.5, "stimA_condition": 0.5, "response": "j", "performance": "Correct", "rt": 3.4264286250108853}, "events": [{"time": 1389.6743534583366, "event": "initialize", "status": "ok"}, {"time": 1389.6744175417116, "event": "start recording"}, {"time": 1389.9134547916474, "event": "start"}, {"time": 1389.9210780833382, "event": "show fixation"}, {"time": 1390.4261192083359, "event": "show cue"}, {"time": 1391.9320699999807, "event": "show fixation"}, {"time": 1392.4421002917225, "event": "start sound"}, {"time": 1392.9423053333303, "event": "start decision window"}, {"time": 1393.5091774999164, "event": "response"}, {"time": 1395.8687304583145, "event": "done"}]}, {"trial": {"cue_direction": "left", "stimulus": "B|B", "correct_response": "j", "left_cue_condition": 0.5, "stimA_condition": 0.5, "response": "j", "performance": "Correct", "rt": 2.7313037499552593}, "events": [{"time": 1395.8819839583011, "event": "initialize", "status": "ok"}, {"time": 1395.8820507917553, "event": "start recording"}, {"time": 1396.1190906666452, "event": "start"}, {"time": 1396.126220666687, "event": "show fixation"}, {"time": 1396.6308606249513, "event": "show cue"}, {"time": 1398.1361325833714, "event": "show fixation"}, {"time": 1398.6426051666494, "event": "start sound"}, {"time": 1399.1428515833104, "event": "start decision window"}, {"time": 1399.8612070416566, "event": "response"}, {"time": 1401.3741212500026, "event": "done"}]}, {"trial": {"cue_direction": "left", "stimulus": "B|A", "correct_response": "j", "left_cue_condition": 0.5, "stimA_condition": 0.5, "response": "j", "performance": "Correct", "rt": 4.5873050834052265}, "events": [{"time": 1401.3868143749423, "event": "initialize", "status": "ok"}, {"time": 1401.3868828749983, "event": "start recording"}, {"time": 1401.5963196667144, "event": "start"}, {"time": 1401.6029271249427, "event": "show fixation"}, {"time": 1402.1079949999694, "event": "show cue"}, {"time": 1403.6131274166983, "event": "show fixation"}, {"time": 1404.1302611667197, "event": "start sound"}, {"time": 1404.630463291658, "event": "start decision window"}, {"time": 1406.3651554998942, "event": "response"}, {"time": 1408.7177526666783, "event": "done"}]}, {"trial": {"cue_direction": "right", "stimulus": "B|A", "correct_response": "f", "left_cue_condition": 0.5, "stimA_condition": 0.5, "response": "f", "performance": "Correct", "rt": 4.451721708406694}, "events": [{"time": 1408.730860083364, "event": "initialize", "status": "ok"}, {"time": 1408.7309177083662, "event": "start recording"}, {"time": 1408.9712071666727, "event": "start"}, {"time": 1408.9777561667142, "event": "show fixation"}, {"time": 1409.4823084999807, "event": "show cue"}, {"time": 1410.9883835416986, "event": "show fixation"}, {"time": 1411.4960602499777, "event": "start sound"}, {"time": 1411.9962625832995, "event": "start decision window"}, {"time": 1413.7730006249622, "event": "response"}, {"time": 1415.9479837499093, "event": "done"}]}, {"trial": {"cue_direction": "left", "stimulus": "A|A", "correct_response": "f", "left_cue_condition": 0.5, "stimA_condition": 0.5, "response": "f", "performance": "Correct", "rt": 2.8873864583438262}, "events": [{"time": 1415.9614645832917, "event": "initialize", "status": "ok"}, {"time": 1415.9615238748956, "event": "start recording"}, {"time": 1416.1968600833789, "event": "start"}, {"time": 1416.204311666661, "event": "show fixation"}, {"time": 1416.7093594167382, "event": "show cue"}, {"time": 1418.213839874952, "event": "show fixation"}, {"time": 1418.72169866669, "event": "start sound"}, {"time": 1419.2219394167187, "event": "start decision window"}, {"time": 1419.7733316667145, "event": "response"}, {"time": 1421.6092987917364, "event": "done"}]}, {"trial": {"cue_direction": "left", "stimulus": "A|A", "correct_response": "f", "left_cue_condition": 0.5, "stimA_condition": 0.5, "response": "f", "performance": "Correct", "rt": 2.3992459581932053}, "events": [{"time": 1421.6225629582768, "event": "initialize", "status": "ok"}, {"time": 1421.6226271250052, "event": "start recording"}, {"time": 1421.859694249928, "event": "start"}, {"time": 1421.866989333299, "event": "show fixation"}, {"time": 1422.3722083333414, "event": "show cue"}, {"time": 1423.8769540416542, "event": "show fixation"}, {"time": 1424.384772749967, "event": "start sound"}, {"time": 1424.885012916755, "event": "start decision window"}, {"time": 1425.0693532499718, "event": "response"}, {"time": 1426.7842309583211, "event": "done"}]}, {"trial": {"cue_direction": "left", "stimulus": "B|A", "correct_response": "j", "left_cue_condition": 0.5, "stimA_condition": 0.5, "response": "j", "performance": "Correct", "rt": 5.036556000006385}, "events": [{"time": 1426.7976422499632, "event": "initialize", "status": "ok"}, {"time": 1426.7977030833717, "event": "start recording"}, {"time": 1427.0350284999004, "event": "start"}, {"time": 1427.042677499936, "event": "show fixation"}, {"time": 1427.5477794166654, "event": "show cue"}, {"time": 1429.0523678333266, "event": "show fixation"}, {"time": 1429.559700124897, "event": "start sound"}, {"time": 1430.0599249167135, "event": "start decision window"}, {"time": 1432.2934691667324, "event": "response"}, {"time": 1434.5964570833603, "event": "done"}]}, {"trial": {"cue_direction": "right", "stimulus": "B|A", "correct_response": "f", "left_cue_condition": 0.5, "stimA_condition": 0.5, "response": "f", "performance": "Correct", "rt": 5.023088041692972}, "events": [{"time": 1434.6098072082968, "event": "initialize", "status": "ok"}, {"time": 1434.6098841249477, "event": "start recording"}, {"time": 1434.847341333283, "event": "start"}, {"time": 1434.8539936249144, "event": "show fixation"}, {"time": 1435.3617885416606, "event": "show cue"}, {"time": 1436.8701914583798, "event": "show fixation"}, {"time": 1437.3778738332912, "event": "start sound"}, {"time": 1437.8781540417112, "event": "start decision window"}, {"time": 1440.8052533749724, "event": "response"}, {"time": 1442.4012069999008, "event": "done"}]}, {"trial": {"cue_direction": "right", "stimulus": "A|B", "correct_response": "j", "left_cue_condition": 0.5, "stimA_condition": 0.5, "response": "j", "performance": "Correct", "rt": 3.4796309581724927}, "events": [{"time": 1442.414842124912, "event": "initialize", "status": "ok"}, {"time": 1442.4149037917377, "event": "start recording"}, {"time": 1442.6445344582899, "event": "start"}, {"time": 1442.6523682917468, "event": "show fixation"}, {"time": 1443.1567607916659, "event": "show cue"}, {"time": 1444.6606881667394, "event": "show fixation"}, {"time": 1445.1680634167278, "event": "start sound"}, {"time": 1445.668294083327, "event": "start decision window"}, {"time": 1446.6294676667312, "event": "response"}, {"time": 1448.6478913750034, "event": "done"}]}, {"trial": {"cue_direction": "right", "stimulus": "B|A", "correct_response": "f", "left_cue_condition": 0.5, "stimA_condition": 0.5, "response": "j", "performance": "Incorrect", "rt": 2.949623958207667}, "events": [{"time": 1448.6610162499128, "event": "initialize", "status": "ok"}, {"time": 1448.6610867083073, "event": "start recording"}, {"time": 1448.899832083378, "event": "start"}, {"time": 1448.9064931249013, "event": "show fixation"}, {"time": 1449.4116627917392, "event": "show cue"}, {"time": 1450.9169346666895, "event": "show fixation"}, {"time": 1451.4276607083157, "event": "start sound"}, {"time": 1451.9278942499077, "event": "start decision window"}, {"time": 1452.2933904583333, "event": "response"}, {"time": 1454.3774959583534, "event": "done"}]}, {"trial": {"cue_direction": "left", "stimulus": "A|A", "correct_response": "f", "left_cue_condition": 0.5, "stimA_condition": 0.5, "response": "f", "performance": "Correct", "rt": 3.889219916658476}, "events": [{"time": 1454.3906170832925, "event": "initialize", "status": "ok"}, {"time": 1454.3906767499866, "event": "start recording"}, {"time": 1454.6308853332885, "event": "start"}, {"time": 1454.6383470416768, "event": "show fixation"}, {"time": 1455.143747916678, "event": "show cue"}, {"time": 1456.647951583378, "event": "show fixation"}, {"time": 1457.1555292917183, "event": "start sound"}, {"time": 1457.6557257917011, "event": "start decision window"}, {"time": 1458.9017458749004, "event": "response"}, {"time": 1461.0449439167278, "event": "done"}]}, {"trial": {"cue_direction": "right", "stimulus": "B|B", "correct_response": "j", "left_cue_condition": 0.5, "stimA_condition": 0.5, "response": "j", "performance": "Correct", "rt": 2.7502642082981765}, "events": [{"time": 1461.0588979999302, "event": "initialize", "status": "ok"}, {"time": 1461.0589656250086, "event": "start recording"}, {"time": 1461.298650749959, "event": "start"}, {"time": 1461.3061662083492, "event": "show fixation"}, {"time": 1461.8114604583243, "event": "show cue"}, {"time": 1463.3162946249358, "event": "show fixation"}, {"time": 1463.823016249924, "event": "start sound"}, {"time": 1464.323254166753, "event": "start decision window"}, {"time": 1464.4937383749057, "event": "response"}, {"time": 1466.5734822083032, "event": "done"}]}, {"trial": {"cue_direction": "left", "stimulus": "B|A", "correct_response": "j", "left_cue_condition": 0.5, "stimA_condition": 0.5, "response": "j", "performance": "Correct", "rt": 2.685424291761592}, "events": [{"time": 1466.586864791694, "event": "initialize", "status": "ok"}, {"time": 1466.5869222916663, "event": "start recording"}, {"time": 1466.8244893333176, "event": "start"}, {"time": 1466.8317450833274, "event": "show fixation"}, {"time": 1467.336690499913, "event": "show cue"}, {"time": 1468.8409481249982, "event": "show fixation"}, {"time": 1469.3483618749306, "event": "start sound"}, {"time": 1469.8486123749753, "event": "start decision window"}, {"time": 1470.2938813749934, "event": "response"}, {"time": 1472.0339903333224, "event": "done"}]}, {"trial": {"cue_direction": "right", "stimulus": "A|B", "correct_response": "j", "left_cue_condition": 0.5, "stimA_condition": 0.5, "response": "j", "performance": "Correct", "rt": 3.1249808333814144}, "events": [{"time": 1472.047523916699, "event": "initialize", "status": "ok"}, {"time": 1472.047581791645, "event": "start recording"}, {"time": 1472.2856769582722, "event": "start"}, {"time": 1472.2923828749917, "event": "show fixation"}, {"time": 1472.7976702499436, "event": "show cue"}, {"time": 1474.3027088749222, "event": "show fixation"}, {"time": 1474.8105389999691, "event": "start sound"}, {"time": 1475.3107592082815, "event": "start decision window"}, {"time": 1476.0059557500063, "event": "response"}, {"time": 1477.9357192500029, "event": "done"}]}, {"trial": {"cue_direction": "left", "stimulus": "B|A", "correct_response": "j", "left_cue_condition": 0.5, "stimA_condition": 0.5, "response": "j", "performance": "Correct", "rt": 3.3624162916094065}, "events": [{"time": 1477.9491039583227, "event": "initialize", "status": "ok"}, {"time": 1477.9491789583117, "event": "start recording"}, {"time": 1478.1579293332761, "event": "start"}, {"time": 1478.165196166723, "event": "show fixation"}, {"time": 1478.669812249951, "event": "show cue"}, {"time": 1480.1739466666477, "event": "show fixation"}, {"time": 1480.680972458329, "event": "start sound"}, {"time": 1481.1811590417055, "event": "start decision window"}, {"time": 1481.9981097083073, "event": "response"}, {"time": 1484.0435732917394, "event": "done"}]}, {"trial": {"cue_direction": "left", "stimulus": "B|A", "correct_response": "j", "left_cue_condition": 0.5, "stimA_condition": 0.5, "response": "j", "performance": "Correct", "rt": 3.809026625007391}, "events": [{"time": 1484.0577539167134, "event": "initialize", "status": "ok"}, {"time": 1484.0578056667, "event": "start recording"}, {"time": 1484.3051606666995, "event": "start"}, {"time": 1484.3119991249405, "event": "show fixation"}, {"time": 1484.8168048749212, "event": "show cue"}, {"time": 1486.3207222083583, "event": "show fixation"}, {"time": 1486.8404114582809, "event": "start sound"}, {"time": 1487.3406404582784, "event": "start decision window"}, {"time": 1488.5018842082936, "event": "response"}, {"time": 1490.6496494166786, "event": "done"}]}, {"trial": {"cue_direction": "left", "stimulus": "A|A", "correct_response": "f", "left_cue_condition": 0.5, "stimA_condition": 0.9, "response": "f", "performance": "Correct", "rt": 3.6090517916018143}, "events": [{"time": 1660.7030432083411, "event": "initialize", "status": "ok"}, {"time": 1660.7031559583265, "event": "start recording"}, {"time": 1660.9078913748963, "event": "start"}, {"time": 1660.917408874957, "event": "show fixation"}, {"time": 1661.4219933333807, "event": "show cue"}, {"time": 1662.9258656249149, "event": "show fixation"}, {"time": 1663.4333575000055, "event": "start sound"}, {"time": 1663.9335943333572, "event": "start decision window"}, {"time": 1665.0294584999792, "event": "response"}, {"time": 1667.0426117082825, "event": "done"}]}, {"trial": {"cue_direction": "right", "stimulus": "A|A", "correct_response": "f", "left_cue_condition": 0.5, "stimA_condition": 0.9, "response": "f", "performance": "Correct", "rt": 2.414869291591458}, "events": [{"time": 1667.0560651249252, "event": "initialize", "status": "ok"}, {"time": 1667.0561326249735, "event": "start recording"}, {"time": 1667.2932009582873, "event": "start"}, {"time": 1667.299784624949, "event": "show fixation"}, {"time": 1667.8061065833317, "event": "show cue"}, {"time": 1669.31103074993, "event": "show fixation"}, {"time": 1669.8220384999877, "event": "start sound"}, {"time": 1670.32227279176, "event": "start decision window"}, {"time": 1670.5256987917237, "event": "response"}, {"time": 1672.2371128333034, "event": "done"}]}, {"trial": {"cue_direction": "right", "stimulus": "A|A", "correct_response": "f", "left_cue_condition": 0.5, "stimA_condition": 0.9, "response": "f", "performance": "Correct", "rt": 2.2564642917132005}, "events": [{"time": 1672.2507504583336, "event": "initialize", "status": "ok"}, {"time": 1672.250822083326, "event": "start recording"}, {"time": 1672.4846347083803, "event": "start"}, {"time": 1672.4904032499762, "event": "show fixation"}, {"time": 1672.9961327499477, "event": "show cue"}, {"time": 1674.5003988333046, "event": "show fixation"}, {"time": 1675.0080813333625, "event": "start sound"}, {"time": 1675.5083124582889, "event": "start decision window"}, {"time": 1675.5578187083593, "event": "response"}, {"time": 1677.2647630417487, "event": "done"}]}, {"trial": {"cue_direction": "left", "stimulus": "A|A", "correct_response": "f", "left_cue_condition": 0.5, "stimA_condition": 0.9, "response": "f", "performance": "Correct", "rt": 2.7238806665409356}, "events": [{"time": 1677.2780039167264, "event": "initialize", "status": "ok"}, {"time": 1677.278058249969, "event": "start recording"}, {"time": 1677.4894277499989, "event": "start"}, {"time": 1677.4955405417131, "event": "show fixation"}, {"time": 1677.9998947499553, "event": "show cue"}, {"time": 1679.5040663332911, "event": "show fixation"}, {"time": 1680.0118742083432, "event": "start sound"}, {"time": 1680.5121246249182, "event": "start decision window"}, {"time": 1681.0855128333205, "event": "response"}, {"time": 1682.7360035832971, "event": "done"}]}, {"trial": {"cue_direction": "right", "stimulus": "A|A", "correct_response": "f", "left_cue_condition": 0.5, "stimA_condition": 0.9, "response": "f", "performance": "Correct", "rt": 3.814650541637093}, "events": [{"time": 1682.7493706666864, "event": "initialize", "status": "ok"}, {"time": 1682.7494384166785, "event": "start recording"}, {"time": 1682.9843210417312, "event": "start"}, {"time": 1682.9920872499933, "event": "show fixation"}, {"time": 1683.4973109998973, "event": "show cue"}, {"time": 1685.0020188749768, "event": "show fixation"}, {"time": 1685.5138806666946, "event": "start sound"}, {"time": 1686.0140943749575, "event": "start decision window"}, {"time": 1687.1736000833334, "event": "response"}, {"time": 1689.3287320417585, "event": "done"}]}, {"trial": {"cue_direction": "right", "stimulus": "A|B", "correct_response": "j", "left_cue_condition": 0.5, "stimA_condition": 0.9, "response": "j", "performance": "Correct", "rt": 2.8062094999477267}, "events": [{"time": 1689.3424098333344, "event": "initialize", "status": "ok"}, {"time": 1689.3424678333104, "event": "start recording"}, {"time": 1689.5809332916979, "event": "start"}, {"time": 1689.5878750833217, "event": "show fixation"}, {"time": 1690.093439291697, "event": "show cue"}, {"time": 1691.5983381249243, "event": "show fixation"}, {"time": 1692.1059154999675, "event": "start sound"}, {"time": 1692.6061421666527, "event": "start decision window"}, {"time": 1693.1419602083042, "event": "response"}, {"time": 1694.9123365833657, "event": "done"}]}, {"trial": {"cue_direction": "left", "stimulus": "A|A", "correct_response": "f", "left_cue_condition": 0.5, "stimA_condition": 0.9, "response": "f", "performance": "Correct", "rt": 3.0845149582019076}, "events": [{"time": 1694.9258139167214, "event": "initialize", "status": "ok"}, {"time": 1694.9258738749195, "event": "start recording"}, {"time": 1695.1520980417263, "event": "start"}, {"time": 1695.159263416659, "event": "show fixation"}, {"time": 1695.6644546666648, "event": "show cue"}, {"time": 1697.1725042917533, "event": "show fixation"}, {"time": 1697.6801677916665, "event": "start sound"}, {"time": 1698.1803909166483, "event": "start decision window"}, {"time": 1698.526072874898, "event": "response"}, {"time": 1700.7648862499045, "event": "done"}]}, {"trial": {"cue_direction": "left", "stimulus": "A|A", "correct_response": "f", "left_cue_condition": 0.5, "stimA_condition": 0.9, "response": "f", "performance": "Correct", "rt": 3.7862600833177567}, "events": [{"time": 1700.7781952499645, "event": "initialize", "status": "ok"}, {"time": 1700.7782574583543, "event": "start recording"}, {"time": 1701.0118272498948, "event": "start"}, {"time": 1701.0179411666468, "event": "show fixation"}, {"time": 1701.5228278333088, "event": "show cue"}, {"time": 1703.0315760417143, "event": "show fixation"}, {"time": 1703.539202749962, "event": "start sound"}, {"time": 1704.0394221666502, "event": "start decision window"}, {"time": 1705.6536692082882, "event": "response"}, {"time": 1707.3256746249972, "event": "done"}]}, {"trial": {"cue_direction": "right", "stimulus": "A|A", "correct_response": "f", "left_cue_condition": 0.5, "stimA_condition": 0.9, "response": "f", "performance": "Correct", "rt": 3.1719063334167004}, "events": [{"time": 1707.3392557082698, "event": "initialize", "status": "ok"}, {"time": 1707.339307499933, "event": "start recording"}, {"time": 1707.5747738749487, "event": "start"}, {"time": 1707.5814108749619, "event": "show fixation"}, {"time": 1708.0865312917158, "event": "show cue"}, {"time": 1709.5913985833758, "event": "show fixation"}, {"time": 1710.0989018749679, "event": "start sound"}, {"time": 1710.599121624953, "event": "start decision window"}, {"time": 1710.8860484582838, "event": "response"}, {"time": 1713.2709974166937, "event": "done"}]}, {"trial": {"cue_direction": "right", "stimulus": "A|A", "correct_response": "f", "left_cue_condition": 0.5, "stimA_condition": 0.9, "response": "f", "performance": "Correct", "rt": 3.244208374992013}, "events": [{"time": 1713.2848590000067, "event": "initialize", "status": "ok"}, {"time": 1713.2849196667084, "event": "start recording"}, {"time": 1713.517669874942, "event": "start"}, {"time": 1713.5242701249663, "event": "show fixation"}, {"time": 1714.0297367917374, "event": "show cue"}, {"time": 1715.5350582082756, "event": "show fixation"}, {"time": 1716.0432358749676, "event": "start sound"}, {"time": 1716.5434915417572, "event": "start decision window"}, {"time": 1717.085833249963, "event": "response"}, {"time": 1719.2876707917312, "event": "done"}]}, {"trial": {"cue_direction": "right", "stimulus": "A|B", "correct_response": "j", "left_cue_condition": 0.5, "stimA_condition": 0.9, "response": "j", "performance": "Correct", "rt": 3.4986138333333656}, "events": [{"time": 1719.3009951249696, "event": "initialize", "status": "ok"}, {"time": 1719.301049749949, "event": "start recording"}, {"time": 1719.5382444999414, "event": "start"}, {"time": 1719.5448994167382, "event": "show fixation"}, {"time": 1720.0492177916458, "event": "show cue"}, {"time": 1721.5533427499468, "event": "show fixation"}, {"time": 1722.063341458328, "event": "start sound"}, {"time": 1722.5635520833312, "event": "start decision window"}, {"time": 1723.1741569583537, "event": "response"}, {"time": 1725.562165124