{"config_number": 0, "parameters": {"points_per_cent": 2, "time_limit": 5, "correct_responses": ["f", "j"], "combination_num": 8, "gaze_tolerance": 1.5, "triggers": "<triggers.Triggers object at 0x1474f3e50>"}, "main_data": [{"trial": {"cue_direction": "left", "stimulus": "A|A", "correct_response": "f", "left_cue_condition": 0.9, "stimA_condition": 0.9, "response": "f", "performance": "Correct", "rt": 3.4720806665718555}, "events": [{"time": 206.77824366674758, "event": "initialize", "status": "ok"}, {"time": 206.77859658328816, "event": "start recording"}, {"time": 207.00362274993677, "event": "start"}, {"time": 207.0161577083636, "event": "show fixation"}, {"time": 207.52172479173169, "event": "show cue"}, {"time": 209.0257329583401, "event": "show fixation"}, {"time": 209.59724312496837, "event": "start sound"}, {"time": 210.09754824999254, "event": "start decision window"}, {"time": 210.84391549997963, "event": "response"}, {"time": 213.0696212083567, "event": "done"}]}, {"trial": {"cue_direction": "left", "stimulus": "B|A", "correct_response": "j", "left_cue_condition": 0.9, "stimA_condition": 0.9, "response": "j", "performance": "Correct", "rt": 4.574784791562706}, "events": [{"time": 213.08226774993818, "event": "initialize", "status": "ok"}, {"time": 213.08232895832043, "event": "start recording"}, {"time": 213.32101487496402, "event": "start"}, {"time": 213.32764279167168, "event": "show fixation"}, {"time": 213.83302541670855, "event": "show cue"}, {"time": 215.33840399992187, "event": "show fixation"}, {"time": 215.84899633331224, "event": "start sound"}, {"time": 216.3492329167202, "event": "start decision window"}, {"time": 218.01202595827635, "event": "response"}, {"time": 220.4240112917032, "event": "done"}]}, {"trial": {"cue_direction": "left", "stimulus": "A|A", "correct_response": "f", "left_cue_condition": 0.9, "stimA_condition": 0.9, "response": "f", "performance": "Correct", "rt": 3.329738083295524}, "events": [{"time": 220.4378787917085, "event": "initialize", "status": "ok"}, {"time": 220.4379414167488, "event": "start recording"}, {"time": 220.67283658334054, "event": "start"}, {"time": 220.67955662496388, "event": "show fixation"}, {"time": 221.1845364999026, "event": "show cue"}, {"time": 222.69002816674765, "event": "show fixation"}, {"time": 223.19798479171004, "event": "start sound"}, {"time": 223.69822358328383, "event": "start decision window"}, {"time": 224.6280764999101, "event": "response"}, {"time": 226.52793683332857, "event": "done"}]}, {"trial": {"cue_direction": "left", "stimulus": "A|A", "correct_response": "f", "left_cue_condition": 0.9, "stimA_condition": 0.9, "response": "f", "performance": "Correct", "rt": 2.9326417081756517}, "events": [{"time": 226.5411830417579, "event": "initialize", "status": "ok"}, {"time": 226.54124366666656, "event": "start recording"}, {"time": 226.7836895417422, "event": "start"}, {"time": 226.79133841674775, "event": "show fixation"}, {"time": 227.29685141670052, "event": "show cue"}, {"time": 228.80257804167923, "event": "show fixation"}, {"time": 229.3101890416583, "event": "start sound"}, {"time": 229.8104389583459, "event": "start decision window"}, {"time": 230.6681726666866, "event": "response"}, {"time": 232.24302383337636, "event": "done"}]}, {"trial": {"cue_direction": "left", "stimulus": "A|A", "correct_response": "f", "left_cue_condition": 0.9, "stimA_condition": 0.9, "response": "f", "performance": "Correct", "rt": 3.887261625030078}, "events": [{"time": 232.25631891668309, "event": "initialize", "status": "ok"}, {"time": 232.25637904170435, "event": "start recording"}, {"time": 232.49227166664787, "event": "start"}, {"time": 232.4996100832941, "event": "show fixation"}, {"time": 233.00382016669028, "event": "show cue"}, {"time": 234.50816674996167, "event": "show fixation"}, {"time": 235.016109624994, "event": "start sound"}, {"time": 235.5163838333683, "event": "start decision window"}, {"time": 237.30820795835461, "event": "response"}, {"time": 238.9035819999408, "event": "done"}]}, {"trial": {"cue_direction": "left", "stimulus": "A|A", "correct_response": "f", "left_cue_condition": 0.9, "stimA_condition": 0.9, "response": null, "performance": null, "rt": null}, "events": [{"time": 238.91683491668664, "event": "initialize", "status": "ok"}, {"time": 238.91689458338078, "event": "start recording"}, {"time": 239.15285854169633, "event": "start"}, {"time": 239.15982337493915, "event": "show fixation"}, {"time": 239.66528537496924, "event": "show cue"}, {"time": 241.1702462916728, "event": "show fixation"}, {"time": 241.67786770837847, "event": "start sound"}, {"time": 242.17811249999795, "event": "start decision window"}, {"time": 246.88838349992875, "event": "response"}, {"time": 246.88855324999895, "event": "done"}]}, {"trial": {"cue_direction": "left", "stimulus": "A|A", "correct_response": "f", "left_cue_condition": 0.9, "stimA_condition": 0.9, "response": "f", "performance": "Correct", "rt": 2.8957761665806174}, "events": [{"time": 246.90254287491553, "event": "initialize", "status": "ok"}, {"time": 246.90259766671807, "event": "start recording"}, {"time": 247.1370312917279, "event": "start"}, {"time": 247.14505274989642, "event": "show fixation"}, {"time": 247.65060787496623, "event": "show cue"}, {"time": 249.1561234999681, "event": "show fixation"}, {"time": 249.66535599995404, "event": "start sound"}, {"time": 250.1656047917204, "event": "start decision window"}, {"time": 250.8684658749262, "event": "response"}, {"time": 252.56134845828637, "event": "done"}]}, {"trial": {"cue_direction": "left", "stimulus": "B|A", "correct_response": "j", "left_cue_condition": 0.9, "stimA_condition": 0.9, "response": "j", "performance": "Correct", "rt": 4.108944750041701}, "events": [{"time": 252.57463033334352, "event": "initialize", "status": "ok"}, {"time": 252.5746906667482, "event": "start recording"}, {"time": 252.8278028332861, "event": "start"}, {"time": 252.83428516669665, "event": "show fixation"}, {"time": 253.33972079167143, "event": "show cue"}, {"time": 254.8448224166641, "event": "show fixation"}, {"time": 255.35273487493396, "event": "start sound"}, {"time": 255.8529968749499, "event": "start decision window"}, {"time": 257.6605244582752, "event": "response"}, {"time": 259.46191954170354, "event": "done"}]}, {"trial": {"cue_direction": "left", "stimulus": "A|A", "correct_response": "f", "left_cue_condition": 0.9, "stimA_condition": 0.9, "response": "f", "performance": "Correct", "rt": 3.18537808326073}, "events": [{"time": 259.4752515417058, "event": "initialize", "status": "ok"}, {"time": 259.47530495829415, "event": "start recording"}, {"time": 259.7025907499483, "event": "start"}, {"time": 259.7093077916652, "event": "show fixation"}, {"time": 260.21441745827906, "event": "show cue"}, {"time": 261.7184857499087, "event": "show fixation"}, {"time": 262.22594554175157, "event": "start sound"}, {"time": 262.7261506667128, "event": "start decision window"}, {"time": 262.98866524989717, "event": "response"}, {"time": 265.4115054582944, "event": "done"}]}, {"trial": {"cue_direction": "left", "stimulus": "A|A", "correct_response": "f", "left_cue_condition": 0.9, "stimA_condition": 0.9, "response": "f", "performance": "Correct", "rt": 2.4509740417124704}, "events": [{"time": 265.42459824995603, "event": "initialize", "status": "ok"}, {"time": 265.42466008337215, "event": "start recording"}, {"time": 265.65997549996246, "event": "start"}, {"time": 265.6668922082754, "event": "show fixation"}, {"time": 266.1719210416777, "event": "show cue"}, {"time": 267.6773212082917, "event": "show fixation"}, {"time": 268.1852479582885, "event": "start sound"}, {"time": 268.6855311249383, "event": "start decision window"}, {"time": 268.9567269999534, "event": "response"}, {"time": 270.6364846667275, "event": "done"}]}, {"trial": {"cue_direction": "left", "stimulus": "A|A", "correct_response": "f", "left_cue_condition": 0.9, "stimA_condition": 0.9, "response": "f", "performance": "Correct", "rt": 2.921320083318278}, "events": [{"time": 270.6497143333545, "event": "initialize", "status": "ok"}, {"time": 270.6497724999208, "event": "start recording"}, {"time": 270.88805487495847, "event": "start"}, {"time": 270.89313295832835, "event": "show fixation"}, {"time": 271.39918254164513, "event": "show cue"}, {"time": 272.90428641671315, "event": "show fixation"}, {"time": 273.41235083329957, "event": "start sound"}, {"time": 273.91259329172317, "event": "start decision window"}, {"time": 274.39686870831065, "event": "response"}, {"time": 276.3339098748984, "event": "done"}]}, {"trial": {"cue_direction": "right", "stimulus": "A|A", "correct_response": "f", "left_cue_condition": 0.9, "stimA_condition": 0.9, "response": "f", "performance": "Correct", "rt": 4.316178416716866}, "events": [{"time": 276.34743362490553, "event": "initialize", "status": "ok"}, {"time": 276.3475017499877, "event": "start recording"}, {"time": 276.5849876248976, "event": "start"}, {"time": 276.5925252083689, "event": "show fixation"}, {"time": 277.09842245827895, "event": "show cue"}, {"time": 278.60298974998295, "event": "show fixation"}, {"time": 279.11051816667896, "event": "start sound"}, {"time": 279.6107742083259, "event": "start decision window"}, {"time": 281.74874895834364, "event": "response"}, {"time": 283.4269179167459, "event": "done"}]}, {"trial": {"cue_direction": "left", "stimulus": "A|A", "correct_response": "f", "left_cue_condition": 0.9, "stimA_condition": 0.9, "response": "f", "performance": "Correct", "rt": 3.6392004166264087}, "events": [{"time": 283.4402818332892, "event": "initialize", "status": "ok"}, {"time": 283.44035366666503, "event": "start recording"}, {"time": 283.68267795827705, "event": "start"}, {"time": 283.6897155416664, "event": "show fixation"}, {"time": 284.195333374897, "event": "show cue"}, {"time": 285.70044991665054, "event": "show fixation"}, {"time": 286.2081547083799, "event": "start sound"}, {"time": 286.70835970831104, "event": "start decision window"}, {"time": 287.5887461666716, "event": "response"}, {"time": 289.8475465417141, "event": "done"}]}, {"trial": {"cue_direction": "left", "stimulus": "A|A", "correct_response": "f", "left_cue_condition": 0.9, "stimA_condition": 0.9, "response": "f", "performance": "Correct", "rt": 2.810685916803777}, "events": [{"time": 289.8607191666961, "event": "initialize", "status": "ok"}, {"time": 289.8607774999691, "event": "start recording"}, {"time": 290.09600575000513, "event": "start"}, {"time": 290.103161624982, "event": "show fixation"}, {"time": 290.6085987499682, "event": "show cue"}, {"time": 292.11337687494233, "event": "show fixation"}, {"time": 292.62113554170355, "event": "start sound"}, {"time": 293.1213742917171, "event": "start decision window"}, {"time": 293.5330947083421, "event": "response"}, {"time": 295.43203574989457, "event": "done"}]}, {"trial": {"cue_direction": "left", "stimulus": "A|A", "correct_response": "f", "left_cue_condition": 0.9, "stimA_condition": 0.9, "response": "f", "performance": "Correct", "rt": 2.9389014166081324}, "events": [{"time": 295.4452032917179, "event": "initialize", "status": "ok"}, {"time": 295.44527433335315, "event": "start recording"}, {"time": 295.68720774992835, "event": "start"}, {"time": 295.6944402917288, "event": "show fixation"}, {"time": 296.1999473333126, "event": "show cue"}, {"time": 297.7044528332772, "event": "show fixation"}, {"time": 298.2121588749578, "event": "start sound"}, {"time": 298.7123943333281, "event": "start decision window"}, {"time": 299.50103524990845, "event": "response"}, {"time": 301.1512687917566, "event": "done"}]}, {"trial": {"cue_direction": "left", "stimulus": "A|A", "correct_response": "f", "left_cue_condition": 0.9, "stimA_condition": 0.9, "response": "f", "performance": "Correct", "rt": 3.5416165000060573}, "events": [{"time": 301.1680670416681, "event": "initialize", "status": "ok"}, {"time": 301.16812104173005, "event": "start recording"}, {"time": 301.40925191668794, "event": "start"}, {"time": 301.4160408749012, "event": "show fixation"}, {"time": 301.9214263333706, "event": "show cue"}, {"time": 303.4264785833657, "event": "show fixation"}, {"time": 303.93443287489936, "event": "start sound"}, {"time": 304.43468754168134, "event": "start decision window"}, {"time": 305.53333208337426, "event": "response"}, {"time": 307.4762749999063, "event": "done"}]}, {"trial": {"cue_direction": "left", "stimulus": "A|B", "correct_response": "f", "left_cue_condition": 0.9, "stimA_condition": 0.9, "response": "f", "performance": "Correct", "rt": 4.0419843749841675}, "events": [{"time": 307.4902250833111, "event": "initialize", "status": "ok"}, {"time": 307.49028912500944, "event": "start recording"}, {"time": 307.73262945830356, "event": "start"}, {"time": 307.73995091672987, "event": "show fixation"}, {"time": 308.2452702498995, "event": "show cue"}, {"time": 309.7503340833355, "event": "show fixation"}, {"time": 310.2581594167277, "event": "start sound"}, {"time": 310.7583907917142, "event": "start decision window"}, {"time": 311.8133835833287, "event": "response"}, {"time": 314.30035608331673, "event": "done"}]}, {"trial": {"cue_direction": "left", "stimulus": "A|A", "correct_response": "f", "left_cue_condition": 0.9, "stimA_condition": 0.9, "response": "f", "performance": "Correct", "rt": 3.2818579166196287}, "events": [{"time": 314.3146627499955, "event": "initialize", "status": "ok"}, {"time": 314.3147335833637, "event": "start recording"}, {"time": 314.55565679166466, "event": "start"}, {"time": 314.56281941675115, "event": "show fixation"}, {"time": 315.06781358330045, "event": "show cue"}, {"time": 316.5728842499666, "event": "show fixation"}, {"time": 317.08318945835344, "event": "start sound"}, {"time": 317.5834180833772, "event": "start decision window"}, {"time": 317.8775459167082, "event": "response"}, {"time": 320.36525566666387, "event": "done"}]}, {"trial": {"cue_direction": "left", "stimulus": "A|B", "correct_response": "f", "left_cue_condition": 0.9, "stimA_condition": 0.9, "response": null, "performance": null, "rt": null}, "events": [{"time": 320.3790457083378, "event": "initialize", "status": "ok"}, {"time": 320.3791051666485, "event": "start recording"}, {"time": 320.62090687500313, "event": "start"}, {"time": 320.6280403332785, "event": "show fixation"}, {"time": 321.1329974998953, "event": "show cue"}, {"time": 322.63824645837303, "event": "show fixation"}, {"time": 323.1468880417524, "event": "start sound"}, {"time": 323.6471102082869, "event": "start decision window"}, {"time": 328.47886062494945, "event": "response"}, {"time": 328.47904787492007, "event": "done"}]}, {"trial": {"cue_direction": "right", "stimulus": "A|A", "correct_response": "f", "left_cue_condition": 0.9, "stimA_condition": 0.9, "response": "f", "performance": "Correct", "rt": 3.3955987084191293}, "events": [{"time": 328.4922547083115, "event": "initialize", "status": "ok"}, {"time": 328.49231929169036, "event": "start recording"}, {"time": 328.72665091673844, "event": "start"}, {"time": 328.73343233333435, "event": "show fixation"}, {"time": 329.23832587490324, "event": "show cue"}, {"time": 330.7427439999301, "event": "show fixation"}, {"time": 331.25031212496106, "event": "start sound"}, {"time": 331.7506090416573, "event": "start decision window"}, {"time": 332.5577818333404, "event": "response"}, {"time": 334.6461849582847, "event": "done"}]}, {"trial": {"cue_direction": "left", "stimulus": "A|A", "correct_response": "f", "left_cue_condition": 0.9, "stimA_condition": 0.9, "response": "f", "performance": "Correct", "rt": 3.853541791671887}, "events": [{"time": 334.6607855417533, "event": "initialize", "status": "ok"}, {"time": 334.6608449582709, "event": "start recording"}, {"time": 334.8996979999356, "event": "start"}, {"time": 334.906092958292, "event": "show fixation"}, {"time": 335.41017945832573, "event": "show cue"}, {"time": 336.91442020831164, "event": "show fixation"}, {"time": 337.4218656249577, "event": "start sound"}, {"time": 337.92209758330137, "event": "start decision window"}, {"time": 339.53386533330195, "event": "response"}, {"time": 341.2756276667351, "event": "done"}]}, {"trial": {"cue_direction": "left", "stimulus": "A|A", "correct_response": "f", "left_cue_condition": 0.9, "stimA_condition": 0.9, "response": "f", "performance": "Correct", "rt": 3.0308829999994487}, "events": [{"time": 341.2895061667077, "event": "initialize", "status": "ok"}, {"time": 341.2895680833608, "event": "start recording"}, {"time": 341.5317682499299, "event": "start"}, {"time": 341.5390254582744, "event": "show fixation"}, {"time": 342.04432824999094, "event": "show cue"}, {"time": 343.5487840833375, "event": "show fixation"}, {"time": 344.0592589583248, "event": "start sound"}, {"time": 344.5594627499813, "event": "start decision window"}, {"time": 345.02191145834513, "event": "response"}, {"time": 347.09034166671336, "event": "done"}]}, {"trial": {"cue_direction": "left", "stimulus": "A|A", "correct_response": "f", "left_cue_condition": 0.9, "stimA_condition": 0.9, "response": "f", "performance": "Correct", "rt": 3.846482750028372}, "events": [{"time": 347.1043304166524, "event": "initialize", "status": "ok"}, {"time": 347.10439312492963, "event": "start recording"}, {"time": 347.34059187490493, "event": "start"}, {"time": 347.3479936666554, "event": "show fixation"}, {"time": 347.8532136249123, "event": "show cue"}, {"time": 349.3581159999594, "event": "show fixation"}, {"time": 349.8679862082936, "event": "start sound"}, {"time": 350.36822075000964, "event": "start decision window"}, {"time": 351.7581459999783, "event": "response"}, {"time": 353.71467395836953, "event": "done"}]}, {"trial": {"cue_direction": "left", "stimulus": "A|A", "correct_response": "f", "left_cue_condition": 0.9, "stimA_condition": 0.9, "response": "f", "performance": "Correct", "rt": 4.261216541752219}, "events": [{"time": 353.728107083356, "event": "initialize", "status": "ok"}, {"time": 353.7281611249782, "event": "start recording"}, {"time": 353.966928583337, "event": "start"}, {"time": 353.97377308330033, "event": "show fixation"}, {"time": 354.47802004171535, "event": "show cue"}, {"time": 355.9828363333363, "event": "show fixation"}, {"time": 356.4936073749559, "event": "start sound"}, {"time": 356.99384766665753, "event": "start decision window"}, {"time": 358.37395616667345, "event": "response"}, {"time": 360.7550381249748, "event": "done"}]}, {"trial": {"cue_direction": "left", "stimulus": "A|A", "correct_response": "f", "left_cue_condition": 0.9, "stimA_condition": 0.9, "response": "f", "performance": "Correct", "rt": 3.108350666705519}, "events": [{"time": 360.7681812082883, "event": "initialize", "status": "ok"}, {"time": 360.7682435833849, "event": "start recording"}, {"time": 361.0081907917047, "event": "start"}, {"time": 361.01564374996815, "event": "show fixation"}, {"time": 361.5210994583322, "event": "show cue"}, {"time": 363.0261803333415, "event": "show fixation"}, {"time": 363.5339904166758, "event": "start sound"}, {"time": 364.0342468749732, "event": "start decision window"}, {"time": 365.08610241673887, "event": "response"}, {"time": 366.6425525000086, "event": "done"}]}, {"trial": {"cue_direction": "left", "stimulus": "A|A", "correct_response": "f", "left_cue_condition": 0.9, "stimA_condition": 0.9, "response": "f", "performance": "Correct", "rt": 4.3968029582174495}, "events": [{"time": 366.65614016668405, "event": "initialize", "status": "ok"}, {"time": 366.6562119167065, "event": "start recording"}, {"time": 366.88607024995144, "event": "start"}, {"time": 366.8929574167123, "event": "show fixation"}, {"time": 367.39715924998745, "event": "show cue"}, {"time": 368.9019186666701, "event": "show fixation"}, {"time": 369.4097649999894, "event": "start sound"}, {"time": 369.9100180417299, "event": "start decision window"}, {"time": 371.4941473749932, "event": "response"}, {"time": 373.80678712495137, "event": "done"}]}, {"trial": {"cue_direction": "left", "stimulus": "B|A", "correct_response": "j", "left_cue_condition": 0.9, "stimA_condition": 0.9, "response": "j", "performance": "Correct", "rt": 4.234818374970928}, "events": [{"time": 373.82035762490705, "event": "initialize", "status": "ok"}, {"time": 373.82041995832697, "event": "start recording"}, {"time": 374.06284425000194, "event": "start"}, {"time": 374.069505041698, "event": "show fixation"}, {"time": 374.57475629169494, "event": "show cue"}, {"time": 376.08066924999, "event": "show fixation"}, {"time": 376.5882878333796, "event": "start sound"}, {"time": 377.0885712916497, "event": "start decision window"}, {"time": 378.87046933337115, "event": "response"}, {"time": 380.8233685833402, "event": "done"}]}, {"trial": {"cue_direction": "left", "stimulus": "A|A", "correct_response": "f", "left_cue_condition": 0.9, "stimA_condition": 0.9, "response": "f", "performance": "Correct", "rt": 2.883273833314888}, "events": [{"time": 380.8366399167571, "event": "initialize", "status": "ok"}, {"time": 380.8367108749226, "event": "start recording"}, {"time": 381.07155524997506, "event": "start"}, {"time": 381.07919212500565, "event": "show fixation"}, {"time": 381.5846544166561, "event": "show cue"}, {"time": 383.08932199992705, "event": "show fixation"}, {"time": 383.5973331667483, "event": "start sound"}, {"time": 384.09754491667263, "event": "start decision window"}, {"time": 384.7825827082852, "event": "response"}, {"time": 386.480809749919, "event": "done"}]}, {"trial": {"cue_direction": "left", "stimulus": "A|A", "correct_response": "f", "left_cue_condition": 0.9, "stimA_condition": 0.9, "response": "f", "performance": "Correct", "rt": 2.644273749901913}, "events": [{"time": 386.4947853749618, "event": "initialize", "status": "ok"}, {"time": 386.494847666705, "event": "start recording"}, {"time": 386.73299720836803, "event": "start"}, {"time": 386.73796079168096, "event": "show fixation"}, {"time": 387.2433528333204, "event": "show cue"}, {"time": 388.74748087499756, "event": "show fixation"}, {"time": 389.2551313333679, "event": "start sound"}, {"time": 389.7553554166807, "event": "start decision window"}, {"time": 390.36677879164927, "event": "response"}, {"time": 391.8996126666898, "event": "done"}]}, {"trial": {"cue_direction": "left", "stimulus": "A|A", "correct_response": "f", "left_cue_condition": 0.9, "stimA_condition": 0.9, "response": "f", "performance": "Correct", "rt": 2.8399419999914244}, "events": [{"time": 391.9121569166891, "event": "initialize", "status": "ok"}, {"time": 391.9122183333384, "event": "start recording"}, {"time": 392.15414879168384, "event": "start"}, {"time": 392.16113754175603, "event": "show fixation"}, {"time": 392.6652208333835, "event": "show cue"}, {"time": 394.1704687917372, "event": "show fixation"}, {"time": 394.6800339167239, "event": "start sound"}, {"time": 395.1802554166643, "event": "start decision window"}, {"time": 395.71049162501004, "event": "response"}, {"time": 397.5201822082745, "event": "done"}]}, {"trial": {"cue_direction": "left", "stimulus": "A|B", "correct_response": "f", "left_cue_condition": 0.9, "stimA_condition": 0.5, "response": "f", "performance": "Correct", "rt": 5.666174791636877}, "events": [{"time": 548.5203276249813, "event": "initialize", "status": "ok"}, {"time": 548.520473791752, "event": "start recording"}, {"time": 548.7329667083686, "event": "start"}, {"time": 548.7433767083567, "event": "show fixation"}, {"time": 549.2482586667174, "event": "show cue"}, {"time": 550.7527507499326, "event": "show fixation"}, {"time": 551.262830874999, "event": "start sound"}, {"time": 551.7630504167173, "event": "start decision window"}, {"time": 554.6956405832898, "event": "response"}, {"time": 556.9291976249078, "event": "done"}]}, {"trial": {"cue_direction": "left", "stimulus": "A|B", "correct_response": "f", "left_cue_condition": 0.9, "stimA_condition": 0.5, "response": "f", "performance": "Correct", "rt": 2.486760916770436}, "events": [{"time": 556.9423689167015, "event": "initialize", "status": "ok"}, {"time": 556.9424318333622, "event": "start recording"}, {"time": 557.1824977083597, "event": "start"}, {"time": 557.1892588332994, "event": "show fixation"}, {"time": 557.6944503749255, "event": "show cue"}, {"time": 559.2009025833104, "event": "show fixation"}, {"time": 559.7085752499988, "event": "start sound"}, {"time": 560.2088182916632, "event": "start decision window"}, {"time": 560.600034999894, "event": "response"}, {"time": 562.1955479999306, "event": "done"}]}, {"trial": {"cue_direction": "left", "stimulus": "B|A", "correct_response": "j", "left_cue_condition": 0.9, "stimA_condition": 0.5, "response": "j", "performance": "Correct", "rt": 4.41523858346045}, "events": [{"time": 562.2085354167502, "event": "initialize", "status": "ok"}, {"time": 562.2085976249073, "event": "start recording"}, {"time": 562.4457283749944, "event": "start"}, {"time": 562.4525203333469, "event": "show fixation"}, {"time": 562.9573086249875, "event": "show cue"}, {"time": 564.4624871249544, "event": "show fixation"}, {"time": 564.9706317082746, "event": "start sound"}, {"time": 565.4708993333625, "event": "start decision window"}, {"time": 567.7123611249262, "event": "response"}, {"time": 569.3861163749825, "event": "done"}]}, {"trial": {"cue_direction": "left", "stimulus": "A|A", "correct_response": "f", "left_cue_condition": 0.9, "stimA_condition": 0.5, "response": "f", "performance": "Correct", "rt": 4.093680958379991}, "events": [{"time": 569.3993224999867, "event": "initialize", "status": "ok"}, {"time": 569.3993904999224, "event": "start recording"}, {"time": 569.6304484999273, "event": "start"}, {"time": 569.6372716249898, "event": "show fixation"}, {"time": 570.1425611666637, "event": "show cue"}, {"time": 571.6470652082935, "event": "show fixation"}, {"time": 572.1545625417493, "event": "start sound"}, {"time": 572.6548027083045, "event": "start decision window"}, {"time": 573.8162353333319, "event": "response"}, {"time": 576.2484480832936, "event": "done"}]}, {"trial": {"cue_direction": "left", "stimulus": "B|A", "correct_response": "j", "left_cue_condition": 0.9, "stimA_condition": 0.5, "response": "j", "performance": "Correct", "rt": 4.325864124926738}, "events": [{"time": 576.2621883749962, "event": "initialize", "status": "ok"}, {"time": 576.262257833383, "event": "start recording"}, {"time": 576.4923622916685, "event": "start"}, {"time": 576.4994169999845, "event": "show fixation"}, {"time": 577.0041663333541, "event": "show cue"}, {"time": 578.5085359166842, "event": "show fixation"}, {"time": 579.0159302499378, "event": "start sound"}, {"time": 579.5161591666983, "event": "start decision window"}, {"time": 580.9522874166723, "event": "response"}, {"time": 583.3420159582747, "event": "done"}]}, {"trial": {"cue_direction": "left", "stimulus": "B|A", "correct_response": "j", "left_cue_condition": 0.9, "stimA_condition": 0.5, "response": "j", "performance": "Correct", "rt": 4.56717416679021}, "events": [{"time": 583.3552370417165, "event": "initialize", "status": "ok"}, {"time": 583.3553074167576, "event": "start recording"}, {"time": 583.5906357499771, "event": "start"}, {"time": 583.5977920832811, "event": "show fixation"}, {"time": 584.102885958273, "event": "show cue"}, {"time": 585.6075846249005, "event": "show fixation"}, {"time": 586.1151507499162, "event": "start sound"}, {"time": 586.6153544166591, "event": "start decision window"}, {"time": 588.5684937082697, "event": "response"}, {"time": 590.682525041746, "event": "done"}]}, {"trial": {"cue_direction": "left", "stimulus": "B|B", "correct_response": "j", "left_cue_condition": 0.9, "stimA_condition": 0.5, "response": "j", "performance": "Correct", "rt": 3.304945208481513}, "events": [{"time": 590.6961348749464, "event": "initialize", "status": "ok"}, {"time": 590.6961972083664, "event": "start recording"}, {"time": 590.9310997916618, "event": "start"}, {"time": 590.9376923749223, "event": "show fixation"}, {"time": 591.4427282917313, "event": "show cue"}, {"time": 592.9472476249794, "event": "show fixation"}, {"time": 593.4554535832722, "event": "start sound"}, {"time": 593.9556603749515, "event": "start decision window"}, {"time": 594.9201499583432, "event": "response"}, {"time": 596.7605920833303, "event": "done"}]}, {"trial": {"cue_direction": "right", "stimulus": "A|A", "correct_response": "f", "left_cue_condition": 0.9, "stimA_condition": 0.5, "response": "f", "performance": "Correct", "rt": 3.457628666772507}, "events": [{"time": 596.7738779583015, "event": "initialize", "status": "ok"}, {"time": 596.7739431667142, "event": "start recording"}, {"time": 597.0112141666468, "event": "start"}, {"time": 597.018104958348, "event": "show fixation"}, {"time": 597.5227730417391, "event": "show cue"}, {"time": 599.0278548332863, "event": "show fixation"}, {"time": 599.5356200833339, "event": "start sound"}, {"time": 600.0358454999514, "event": "start decision window"}, {"time": 600.5528007916873, "event": "response"}, {"time": 602.9934502498945, "event": "done"}]}, {"trial": {"cue_direction": "left", "stimulus": "A|A", "correct_response": "f", "left_cue_condition": 0.9, "stimA_condition": 0.5, "response": "f", "performance": "Correct", "rt": 3.4509426667355}, "events": [{"time": 603.0062904999359, "event": "initialize", "status": "ok"}, {"time": 603.0063551666681, "event": "start recording"}, {"time": 603.2444107916672, "event": "start"}, {"time": 603.2496843333356, "event": "show fixation"}, {"time": 603.755569333327, "event": "show cue"}, {"time": 605.2602363749174, "event": "show fixation"}, {"time": 605.7680378332734, "event": "start sound"}, {"time": 606.2682770417305, "event": "start decision window"}, {"time": 607.6404020832852, "event": "response"}, {"time": 609.2191861666506, "event": "done"}]}, {"trial": {"cue_direction": "right", "stimulus": "B|B", "correct_response": "j", "left_cue_condition": 0.9, "stimA_condition": 0.5, "response": "j", "performance": "Correct", "rt": 2.1585961249656975}, "events": [{"time": 609.2327880833764, "event": "initialize", "status": "ok"}, {"time": 609.2328503750032, "event": "start recording"}, {"time": 609.4708226249786, "event": "start"}, {"time": 609.4776688748971, "event": "show fixation"}, {"time": 609.9828913332894, "event": "show cue"}, {"time": 611.4876389583806, "event": "show fixation"}, {"time": 611.9960073332768, "event": "start sound"}, {"time": 612.4962306667585, "event": "start decision window"}, {"time": 612.6486909999512, "event": "response"}, {"time": 614.1548172499752, "event": "done"}]}, {"trial": {"cue_direction": "right", "stimulus": "B|A", "correct_response": "f", "left_cue_condition": 0.9, "stimA_condition": 0.5, "response": "j", "performance": "Incorrect", "rt": 2.9243733750190586}, "events": [{"time": 614.1679060417227, "event": "initialize", "status": "ok"}, {"time": 614.1679665417178, "event": "start recording"}, {"time": 614.405801624991, "event": "start"}, {"time": 614.4131214999361, "event": "show fixation"}, {"time": 614.9184111667564, "event": "show cue"}, {"time": 616.4234437498963, "event": "show fixation"}, {"time": 616.9314854582772, "event": "start sound"}, {"time": 617.4317194583127, "event": "start decision window"}, {"time": 617.7206487082876, "event": "response"}, {"time": 619.8560867917258, "event": "done"}]}, {"trial": {"cue_direction": "left", "stimulus": "A|A", "correct_response": "f", "left_cue_condition": 0.9, "stimA_condition": 0.5, "response": "f", "performance": "Correct", "rt": 4.302854833193123}, "events": [{"time": 619.8698126666714, "event": "initialize", "status": "ok"}, {"time": 619.8698678750079, "event": "start recording"}, {"time": 620.1059234166751, "event": "start"}, {"time": 620.1133824583376, "event": "show fixation"}, {"time": 620.6185521667358, "event": "show cue"}, {"time": 622.1234903333243, "event": "show fixation"}, {"time": 622.6312231249176, "event": "start sound"}, {"time": 623.1314824166475, "event": "start decision window"}, {"time": 624.5208281667437, "event": "response"}, {"time": 626.9343042917317, "event": "done"}]}, {"trial": {"cue_direction": "left", "stimulus": "A|A", "correct_response": "f", "left_cue_condition": 0.9, "stimA_condition": 0.5, "response": "f", "performance": "Correct", "rt": 3.3898085833061486}, "events": [{"time": 626.9474572499748, "event": "initialize", "status": "ok"}, {"time": 626.947515958338, "event": "start recording"}, {"time": 627.1884629583219, "event": "start"}, {"time": 627.1960524166934, "event": "show fixation"}, {"time": 627.7017706667539, "event": "show cue"}, {"time": 629.2061249999097, "event": "show fixation"}, {"time": 629.713551666704, "event": "start sound"}, {"time": 630.2137769582914, "event": "start decision window"}, {"time": 630.897030916647, "event": "response"}, {"time": 633.1035539583536, "event": "done"}]}, {"trial": {"cue_direction": "left", "stimulus": "A|A", "correct_response": "f", "left_cue_condition": 0.9, "stimA_condition": 0.5, "response": "f", "performance": "Correct", "rt": 3.7451044167391956}, "events": [{"time": 633.1169578749686, "event": "initialize", "status": "ok"}, {"time": 633.1170177083695, "event": "start recording"}, {"time": 633.3541133749532, "event": "start"}, {"time": 633.3610729583306, "event": "show fixation"}, {"time": 633.8663538749097, "event": "show cue"}, {"time": 635.3712471249746, "event": "show fixation"}, {"time": 635.882003833307, "event": "start sound"}, {"time": 636.3822830832796, "event": "start decision window"}, {"time": 637.2730631666491, "event": "response"}, {"time": 639.627320666681, "event": "done"}]}, {"trial": {"cue_direction": "left", "stimulus": "A|A", "correct_response": "f", "left_cue_condition": 0.9, "stimA_condition": 0.5, "response": "f", "performance": "Correct", "rt": 3.3350473750615492}, "events": [{"time": 639.6404779583681, "event": "initialize", "status": "ok"}, {"time": 639.6405421249801, "event": "start recording"}, {"time": 639.8759242083179, "event": "start"}, {"time": 639.8834069999866, "event": "show fixation"}, {"time": 640.3886344583007, "event": "show cue"}, {"time": 641.8937382498989, "event": "show fixation"}, {"time": 642.4017339167185, "event": "start sound"}, {"time": 642.9019930833019, "event": "start decision window"}, {"time": 643.2410541666904, "event": "response"}, {"time": 645.7370047083823, "event": "done"}]}, {"trial": {"cue_direction": "left", "stimulus": "B|B", "correct_response": "j", "left_cue_condition": 0.9, "stimA_condition": 0.5, "response": "j", "performance": "Correct", "rt": 2.874193000025116}, "events": [{"time": 645.7508787499974, "event": "initialize", "status": "ok"}, {"time": 645.7509349166648, "event": "start recording"}, {"time": 645.9932651249692, "event": "start"}, {"time": 646.0000052083051, "event": "show fixation"}, {"time": 646.5051975416718, "event": "show cue"}, {"time": 648.0105663333088, "event": "show fixation"}, {"time": 648.5170967499726, "event": "start sound"}, {"time": 649.0173646666808, "event": "start decision window"}, {"time": 649.3772386667551, "event": "response"}, {"time": 651.3915000417037, "event": "done"}]}, {"trial": {"cue_direction": "right", "stimulus": "A|A", "correct_response": "f", "left_cue_condition": 0.9, "stimA_condition": 0.5, "response": "f", "performance": "Correct", "rt": 3.1617321249796078}, "events": [{"time": 651.4041966249933, "event": "initialize", "status": "ok"}, {"time": 651.4042624166468, "event": "start recording"}, {"time": 651.6134742082795, "event": "start"}, {"time": 651.6196574999485, "event": "show fixation"}, {"time": 652.1240980833536, "event": "show cue"}, {"time": 653.6280720416689, "event": "show fixation"}, {"time": 654.1356045417488, "event": "start sound"}, {"time": 654.6358322500018, "event": "start decision window"}, {"time": 654.9932791249594, "event": "response"}, {"time": 657.2975632917369, "event": "done"}]}, {"trial": {"cue_direction": "left", "stimulus": "B|B", "correct_response": "j", "left_cue_condition": 0.9, "stimA_condition": 0.5, "response": "j", "performance": "Correct", "rt": 3.2349785832921043}, "events": [{"time": 657.3109781249659, "event": "initialize", "status": "ok"}, {"time": 657.3110411666567, "event": "start recording"}, {"time": 657.5501762083732, "event": "start"}, {"time": 657.5578418333316, "event": "show fixation"}, {"time": 658.0632999583613, "event": "show cue"}, {"time": 659.5690283749718, "event": "show fixation"}, {"time": 660.075861249934, "event": "start sound"}, {"time": 660.5760674583726, "event": "start decision window"}, {"time": 661.0330504582962, "event": "response"}, {"time": 663.3110292499186, "event": "done"}]}, {"trial": {"cue_direction": "left", "stimulus": "A|A", "correct_response": "f", "left_cue_condition": 0.9, "stimA_condition": 0.5, "response": "f", "performance": "Correct", "rt": 3.5962381667923182}, "events": [{"time": 663.3244054167299, "event": "initialize", "status": "ok"}, {"time": 663.3244911249494, "event": "start recording"}, {"time": 663.5640254999744, "event": "start"}, {"time": 663.5706111249747, "event": "show fixation"}, {"time": 664.0758094167104, "event": "show cue"}, {"time": 665.5802528333152, "event": "show fixation"}, {"time": 666.0919859167188, "event": "start sound"}, {"time": 666.5922544999048, "event": "start decision window"}, {"time": 667.3214555833256, "event": "response"}, {"time": 669.6884781667031, "event": "done"}]}, {"trial": {"cue_direction": "left", "stimulus": "A|B", "correct_response": "f", "left_cue_condition": 0.9, "stimA_condition": 0.5, "response": "f", "performance": "Correct", "rt": 3.97120625001844}, "events": [{"time": 669.7019452499226, "event": "initialize", "status": "ok"}, {"time": 669.7020052083535, "event": "start recording"}, {"time": 669.9373221249552, "event": "start"}, {"time": 669.9440177083015, "event": "show fixation"}, {"time": 670.4491206249222, "event": "show cue"}, {"time": 671.9533534167567, "event": "show fixation"}, {"time": 672.4607849166496, "event": "start sound"}, {"time": 672.9610376666533, "event": "start decision window"}, {"time": 674.0815764999716, "event": "response"}, {"time": 676.4322119998978, "event": "done"}]}, {"trial": {"cue_direction": "left", "stimulus": "B|B", "correct_response": "j", "left_cue_condition": 0.9, "stimA_condition": 0.5, "response": "j", "performance": "Correct", "rt": 3.2962651249254122}, "events": [{"time": 676.4454237082973, "event": "initialize", "status": "ok"}, {"time": 676.4455836666748, "event": "start recording"}, {"time": 676.6846082499251, "event": "start"}, {"time": 676.6921060833847, "event": "show fixation"}, {"time": 677.196385874995, "event": "show cue"}, {"time": 678.7014247083571, "event": "show fixation"}, {"time": 679.2081631249748, "event": "start sound"}, {"time": 679.7084030833794, "event": "start decision window"}, {"time": 680.2253797083395, "event": "response"}, {"time": 682.5046420417493, "event": "done"}]}, {"trial": {"cue_direction": "left", "stimulus": "B|B", "correct_response": "j", "left_cue_condition": 0.9, "stimA_condition": 0.5, "response": "j", "performance": "Correct", "rt": 2.758124208310619}, "events": [{"time": 682.517836666666, "event": "initialize", "status": "ok"}, {"time": 682.5179089583689, "event": "start recording"}, {"time": 682.7605866667582, "event": "start"}, {"time": 682.7674155833665, "event": "show fixation"}, {"time": 683.2716174583184, "event": "show cue"}, {"time": 684.7759358333424, "event": "show fixation"}, {"time": 685.2823126249714, "event": "start sound"}, {"time": 685.782549458323, "event": "start decision window"}, {"time": 686.4895014583599, "event": "response"}, {"time": 688.0406619999558, "event": "done"}]}, {"trial": {"cue_direction": "right", "stimulus": "B|A", "correct_response": "f", "left_cue_condition": 0.9, "stimA_condition": 0.5, "response": "f", "performance": "Correct", "rt": 3.8108707499923185}, "events": [{"time": 688.0540051249554, "event": "initialize", "status": "ok"}, {"time": 688.0540622082772, "event": "start recording"}, {"time": 688.2908102499787, "event": "start"}, {"time": 688.2976022500079, "event": "show fixation"}, {"time": 688.8027377083199, "event": "show cue"}, {"time": 690.3078729583649, "event": "show fixation"}, {"time": 690.8157052499009, "event": "start sound"}, {"time": 691.3160070832819, "event": "start decision window"}, {"time": 692.3617825832916, "event": "response"}, {"time": 694.6268405832816, "event": "done"}]}, {"trial": {"cue_direction": "left", "stimulus": "B|A", "correct_response": "j", "left_cue_condition": 0.9, "stimA_condition": 0.5, "response": "j", "performance": "Correct", "rt": 4.332562374998815}, "events": [{"time": 694.6403085832717, "event": "initialize", "status": "ok"}, {"time": 694.6403689166764, "event": "start recording"}, {"time": 694.8784684167476, "event": "start"}, {"time": 694.8862757500028, "event": "show fixation"}, {"time": 695.3919369999785, "event": "show cue"}, {"time": 696.8967839167453, "event": "show fixation"}, {"time": 697.4044947499642, "event": "start sound"}, {"time": 697.9047379166586, "event": "start decision window"}, {"time": 699.6499528333079, "event": "response"}, {"time": 701.737285249983, "event": "done"}]}, {"trial": {"cue_direction": "left", "stimulus": "B|A", "correct_response": "j", "left_cue_condition": 0.9, "stimA_condition": 0.5, "response": "j", "performance": "Correct", "rt": 3.7287420416250825}, "events": [{"time": 701.7502784999087, "event": "initialize", "status": "ok"}, {"time": 701.7503407082986, "event": "start recording"}, {"time": 701.9883771666791, "event": "start"}, {"time": 701.9960090833483, "event": "show fixation"}, {"time": 702.5014269583626, "event": "show cue"}, {"time": 704.0056234999793, "event": "show fixation"}, {"time": 704.5129962082719, "event": "start sound"}, {"time": 705.0131916250102, "event": "start decision window"}, {"time": 706.5697448749561, "event": "response"}, {"time": 708.2419320832705, "event": "done"}]}, {"trial": {"cue_direction": "left", "stimulus": "B|A", "correct_response": "j", "left_cue_condition": 0.9, "stimA_condition": 0.5, "response": "j", "performance": "Correct", "rt": 3.8309764165896922}, "events": [{"time": 708.2555452917004, "event": "initialize", "status": "ok"}, {"time": 708.2556140833767, "event": "start recording"}, {"time": 708.4939940416953, "event": "start"}, {"time": 708.5007569167065, "event": "show fixation"}, {"time": 709.0055696249474, "event": "show cue"}, {"time": 710.5107959583402, "event": "show fixation"}, {"time": 711.0186206249055, "event": "start sound"}, {"time": 711.5188603749266, "event": "start decision window"}, {"time": 713.2577056667069, "event": "response"}, {"time": 714.8497993749334, "event": "done"}]}, {"trial": {"cue_direction": "left", "stimulus": "A|A", "correct_response": "f", "left_cue_condition": 0.9, "stimA_condition": 0.5, "response": "f", "performance": "Correct", "rt": 3.3585470415418968}, "events": [{"time": 714.8632766249357, "event": "initialize", "status": "ok"}, {"time": 714.8633547083009, "event": "start recording"}, {"time": 715.1043231249787, "event": "start"}, {"time": 715.1113949166611, "event": "show fixation"}, {"time": 715.6160507916939, "event": "show cue"}, {"time": 717.1208218333777, "event": "show fixation"}, {"time": 717.628797583282, "event": "start sound"}, {"time": 718.1290437083226, "event": "start decision window"}, {"time": 718.5381755416747, "event": "response"}, {"time": 720.9875627916772, "event": "done"}]}, {"trial": {"cue_direction": "left", "stimulus": "B|A", "correct_response": "j", "left_cue_condition": 0.9, "stimA_condition": 0.5, "response": "j", "performance": "Correct", "rt": 4.772856416646391}, "events": [{"time": 721.0011009166483, "event": "initialize", "status": "ok"}, {"time": 721.0011554582743, "event": "start recording"}, {"time": 721.2468282083282, "event": "start"}, {"time": 721.2538848749828, "event": "show fixation"}, {"time": 721.7593046666589, "event": "show cue"}, {"time": 723.2643104583258, "event": "show fixation"}, {"time": 723.771861541667, "event": "start sound"}, {"time": 724.2720954166725, "event": "start decision window"}, {"time": 726.5542369167088, "event": "response"}, {"time": 728.5449363333173, "event": "done"}]}, {"trial": {"cue_direction": "left", "stimulus": "B|B", "correct_response": "j", "left_cue_condition": 0.9, "stimA_condition": 0.5, "response": "j", "performance": "Correct", "rt": 2.6081767916912213}, "events": [{"time": 728.5581514167134, "event": "initialize", "status": "ok"}, {"time": 728.5582148333779, "event": "start recording"}, {"time": 728.798298583366, "event": "start"}, {"time": 728.8057361249812, "event": "show fixation"}, {"time": 729.3115576667478, "event": "show cue"}, {"time": 730.8171019583242, "event": "show fixation"}, {"time": 731.3239085833775, "event": "start sound"}, {"time": 731.8241494167596, "event": "start decision window"}, {"time": 732.4263029167196, "event": "response"}, {"time": 733.9322912499774, "event": "done"}]}, {"trial": {"cue_direction": "left", "stimulus": "B|B", "correct_response": "j", "left_cue_condition": 0.9, "stimA_condition": 0.5, "response": "j", "performance": "Correct", "rt": 3.9348494166042656}, "events": [{"time": 733.9468716249103, "event": "initialize", "status": "ok"}, {"time": 733.9469437083462, "event": "start recording"}, {"time": 734.1822748749983, "event": "start"}, {"time": 734.1892359582707, "event": "show fixation"}, {"time": 734.6941376249306, "event": "show cue"}, {"time": 736.1995166249108, "event": "show fixation"}, {"time": 736.7078470833367, "event": "start sound"}, {"time": 737.2080592083512, "event": "start decision window"}, {"time": 738.2345759166637, "event": "response"}, {"time": 740.6428953333525, "event": "done"}]}], "practice_data": [], "window": [1920, 1080], "bonus": 12.53}