{"config_number": 0, "parameters": {"points_per_cent": 2, "time_limit": 5, "correct_responses": ["f", "j"], "combination_num": 8, "gaze_tolerance": 1.5, "triggers": "<triggers.Triggers object at 0x311fc9130>"}, "main_data": [{"trial": {"cue_direction": "left", "stimulus": "B|A", "correct_response": "j", "left_cue_condition": 0.5, "stimA_condition": 0.5, "response": "f", "performance": "Incorrect", "rt": 4.336167083340115}, "events": [{"time": 39.398997083335416, "event": "initialize", "status": "ok"}, {"time": 39.39908362500137, "event": "start recording"}, {"time": 39.525103499996476, "event": "start"}, {"time": 39.530450124999334, "event": "show fixation"}, {"time": 40.03800820833567, "event": "show cue"}, {"time": 41.54438845833647, "event": "show fixation"}, {"time": 42.054141249995155, "event": "start sound"}, {"time": 42.554335875000106, "event": "start decision window"}, {"time": 43.97661499999958, "event": "response"}, {"time": 46.390492208331125, "event": "done"}]}, {"trial": {"cue_direction": "left", "stimulus": "B|A", "correct_response": "j", "left_cue_condition": 0.5, "stimA_condition": 0.5, "response": "f", "performance": "Incorrect", "rt": 2.5912965833340422}, "events": [{"time": 46.40951741666504, "event": "initialize", "status": "ok"}, {"time": 46.40957458333287, "event": "start recording"}, {"time": 46.53535916666442, "event": "start"}, {"time": 46.53753508333466, "event": "show fixation"}, {"time": 47.04283604166267, "event": "show cue"}, {"time": 48.55011045833817, "event": "show fixation"}, {"time": 49.058441541659704, "event": "start sound"}, {"time": 49.55859704166505, "event": "start decision window"}, {"time": 49.768474041666195, "event": "response"}, {"time": 51.64989274999971, "event": "done"}]}, {"trial": {"cue_direction": "right", "stimulus": "B|B", "correct_response": "j", "left_cue_condition": 0.5, "stimA_condition": 0.5, "response": "j", "performance": "Correct", "rt": 2.9350534999975935}, "events": [{"time": 51.670983458338014, "event": "initialize", "status": "ok"}, {"time": 51.671035624996875, "event": "start recording"}, {"time": 51.79686475000199, "event": "start"}, {"time": 51.79864712499693, "event": "show fixation"}, {"time": 52.30407233333244, "event": "show cue"}, {"time": 53.81116745833424, "event": "show fixation"}, {"time": 54.31997587499791, "event": "start sound"}, {"time": 54.82014324999909, "event": "start decision window"}, {"time": 55.2645427499956, "event": "response"}, {"time": 57.255198999999266, "event": "done"}]}, {"trial": {"cue_direction": "left", "stimulus": "A|B", "correct_response": "f", "left_cue_condition": 0.9, "stimA_condition": 0.3, "response": "f", "performance": "Correct", "rt": 3.4480830833272194}, "events": [{"time": 63.65075287500076, "event": "initialize", "status": "ok"}, {"time": 63.65084874999593, "event": "start recording"}, {"time": 63.775497541661025, "event": "start"}, {"time": 63.77765504166018, "event": "show fixation"}, {"time": 64.28302854166395, "event": "show cue"}, {"time": 65.78937216666236, "event": "show fixation"}, {"time": 66.29908362499555, "event": "start sound"}, {"time": 66.79925695833663, "event": "start decision window"}, {"time": 67.60837637499935, "event": "response"}, {"time": 69.74732966666488, "event": "done"}]}, {"trial": {"cue_direction": "left", "stimulus": "B|B", "correct_response": "j", "left_cue_condition": 0.9, "stimA_condition": 0.3, "response": "j", "performance": "Correct", "rt": 3.8956090833307826}, "events": [{"time": 69.77152704165928, "event": "initialize", "status": "ok"}, {"time": 69.77157891666138, "event": "start recording"}, {"time": 69.89789212500182, "event": "start"}, {"time": 69.90043758333195, "event": "show fixation"}, {"time": 70.40593487500155, "event": "show cue"}, {"time": 71.91225520833541, "event": "show fixation"}, {"time": 72.42498049999995, "event": "start sound"}, {"time": 72.92509279166552, "event": "start decision window"}, {"time": 74.62443195833475, "event": "response"}, {"time": 76.32070220833702, "event": "done"}]}, {"trial": {"cue_direction": "left", "stimulus": "B|B", "correct_response": "j", "left_cue_condition": 0.9, "stimA_condition": 0.3, "response": "j", "performance": "Correct", "rt": 3.2415273750011693}, "events": [{"time": 76.34005916666501, "event": "initialize", "status": "ok"}, {"time": 76.34011525000096, "event": "start recording"}, {"time": 76.46765466665966, "event": "start"}, {"time": 76.46986908333201, "event": "show fixation"}, {"time": 76.97683249999682, "event": "show cue"}, {"time": 78.48592491666204, "event": "show fixation"}, {"time": 79.0016378750006, "event": "start sound"}, {"time": 79.50180645833461, "event": "start decision window"}, {"time": 79.92725337499724, "event": "response"}, {"time": 82.24331174999679, "event": "done"}]}, {"trial": {"cue_direction": "left", "stimulus": "B|B", "correct_response": "j", "left_cue_condition": 0.5, "stimA_condition": 0.3, "response": "f", "performance": "Incorrect", "rt": 3.1798137500009034}, "events": [{"time": 88.59349766666128, "event": "initialize", "status": "ok"}, {"time": 88.59359004166618, "event": "start recording"}, {"time": 88.71835979166644, "event": "start"}, {"time": 88.72048716666177, "event": "show fixation"}, {"time": 89.22599016666209, "event": "show cue"}, {"time": 90.73282166666468, "event": "show fixation"}, {"time": 91.23925249999593, "event": "start sound"}, {"time": 91.73938895833271, "event": "start decision window"}, {"time": 92.45619708333834, "event": "response"}, {"time": 94.41918224999972, "event": "done"}]}, {"trial": {"cue_direction": "left", "stimulus": "B|A", "correct_response": "j", "left_cue_condition": 0.5, "stimA_condition": 0.3, "response": "f", "performance": "Incorrect", "rt": 4.1023472499946365}, "events": [{"time": 94.43785229165951, "event": "initialize", "status": "ok"}, {"time": 94.43791341665928, "event": "start recording"}, {"time": 94.56319266666105, "event": "start"}, {"time": 94.56530808333628, "event": "show fixation"}, {"time": 95.07069604166463, "event": "show cue"}, {"time": 96.57692266665981, "event": "show fixation"}, {"time": 97.0850340416655, "event": "start sound"}, {"time": 97.58520120833418, "event": "start decision window"}, {"time": 98.71112429166533, "event": "response"}, {"time": 101.18752474999928, "event": "done"}]}, {"trial": {"cue_direction": "left", "stimulus": "A|B", "correct_response": "f", "left_cue_condition": 0.5, "stimA_condition": 0.3, "response": "f", "performance": "Correct", "rt": 2.509162333335553}, "events": [{"time": 101.20741533333785, "event": "initialize", "status": "ok"}, {"time": 101.20746258333384, "event": "start recording"}, {"time": 101.33577154166414, "event": "start"}, {"time": 101.33810995833483, "event": "show fixation"}, {"time": 101.84330591666367, "event": "show cue"}, {"time": 103.3503195000012, "event": "show fixation"}, {"time": 103.85888700000214, "event": "start sound"}, {"time": 104.35903979166324, "event": "start decision window"}, {"time": 104.84023604166578, "event": "response"}, {"time": 106.36819041666604, "event": "done"}]}], "practice_data": [], "window": [3840, 2160], "bonus": 1.98}