{"config_number": 0, "parameters": {"points_per_cent": 2, "time_limit": 5, "correct_responses": ["f", "j"], "combination_num": 8, "gaze_tolerance": 1.5, "triggers": "<triggers.Triggers object at 0x15f157190>"}, "main_data": [{"trial": {"cue_direction": "left", "stimulus": "B|A", "correct_response": "j", "left_cue_condition": 0.9, "stimA_condition": 0.5, "response": "j", "performance": "Correct", "rt": 3.9603340834146366}, "events": [{"time": 420.81911962502636, "event": "initialize", "status": "ok"}, {"time": 420.8192860833369, "event": "start recording"}, {"time": 421.0227904582862, "event": "start"}, {"time": 421.0320894999895, "event": "show fixation"}, {"time": 421.5373639166355, "event": "show cue"}, {"time": 423.0555449583335, "event": "show fixation"}, {"time": 423.61425987503026, "event": "start sound"}, {"time": 423.6146414167015, "event": "start decision window"}, {"time": 425.8876243750565, "event": "response"}, {"time": 427.5749770416878, "event": "done"}]}, {"trial": {"cue_direction": "left", "stimulus": "B|B", "correct_response": "j", "left_cue_condition": 0.9, "stimA_condition": 0.5, "response": "j", "performance": "Correct", "rt": 3.3632379584014416}, "events": [{"time": 427.59575891669374, "event": "initialize", "status": "ok"}, {"time": 427.59587866661604, "event": "start recording"}, {"time": 427.82863533322234, "event": "start"}, {"time": 427.8355295000365, "event": "show fixation"}, {"time": 428.34003166668117, "event": "show cue"}, {"time": 429.8454889582936, "event": "show fixation"}, {"time": 430.3526647500694, "event": "start sound"}, {"time": 430.3528830000432, "event": "start decision window"}, {"time": 431.9995487916749, "event": "response"}, {"time": 433.7161228749901, "event": "done"}]}, {"trial": {"cue_direction": "left", "stimulus": "B|B", "correct_response": "j", "left_cue_condition": 0.9, "stimA_condition": 0.5, "response": "j", "performance": "Correct", "rt": 3.332290624966845}, "events": [{"time": 433.72997554170433, "event": "initialize", "status": "ok"}, {"time": 433.7300767082488, "event": "start recording"}, {"time": 433.96484545827843, "event": "start"}, {"time": 433.9711709166877, "event": "show fixation"}, {"time": 434.4761089166859, "event": "show cue"}, {"time": 435.98135550005827, "event": "show fixation"}, {"time": 436.4879761666525, "event": "start sound"}, {"time": 436.48819391662255, "event": "start decision window"}, {"time": 437.3278776250081, "event": "response"}, {"time": 439.82048750005197, "event": "done"}]}, {"trial": {"cue_direction": "left", "stimulus": "A|B", "correct_response": "f", "left_cue_condition": 0.9, "stimA_condition": 0.5, "response": "f", "performance": "Correct", "rt": 4.011161874979734}, "events": [{"time": 439.83444579166826, "event": "initialize", "status": "ok"}, {"time": 439.83454187505413, "event": "start recording"}, {"time": 440.0697062916588, "event": "start"}, {"time": 440.07697170833126, "event": "show fixation"}, {"time": 440.58196095831227, "event": "show cue"}, {"time": 442.0870821666904, "event": "show fixation"}, {"time": 442.5945251249941, "event": "start sound"}, {"time": 442.59473541670013, "event": "start decision window"}, {"time": 444.15975970833097, "event": "response"}, {"time": 446.6058995416388, "event": "done"}]}, {"trial": {"cue_direction": "right", "stimulus": "B|B", "correct_response": "j", "left_cue_condition": 0.9, "stimA_condition": 0.5, "response": "j", "performance": "Correct", "rt": 3.1599131249822676}, "events": [{"time": 446.6193688332569, "event": "initialize", "status": "ok"}, {"time": 446.61945666663814, "event": "start recording"}, {"time": 446.8627707500709, "event": "start"}, {"time": 446.86449008330237, "event": "show fixation"}, {"time": 447.3691717082402, "event": "show cue"}, {"time": 448.87472795823123, "event": "show fixation"}, {"time": 449.3813291667029, "event": "start sound"}, {"time": 449.38155129167717, "event": "start decision window"}, {"time": 450.2238512916956, "event": "response"}, {"time": 452.541466374998, "event": "done"}]}, {"trial": {"cue_direction": "right", "stimulus": "B|A", "correct_response": "f", "left_cue_condition": 0.9, "stimA_condition": 0.5, "response": "f", "performance": "Correct", "rt": 2.530567291774787}, "events": [{"time": 452.56237670825794, "event": "initialize", "status": "ok"}, {"time": 452.5624938332476, "event": "start recording"}, {"time": 452.7943637082353, "event": "start"}, {"time": 452.79999845824204, "event": "show fixation"}, {"time": 453.30552412499674, "event": "show cue"}, {"time": 454.81073741661385, "event": "show fixation"}, {"time": 455.32085516664665, "event": "start sound"}, {"time": 455.32114445825573, "event": "start decision window"}, {"time": 455.7919609165983, "event": "response"}, {"time": 457.85171941667795, "event": "done"}]}, {"trial": {"cue_direction": "left", "stimulus": "B|A", "correct_response": "j", "left_cue_condition": 0.9, "stimA_condition": 0.5, "response": "j", "performance": "Correct", "rt": 3.213179666781798}, "events": [{"time": 457.86515741667245, "event": "initialize", "status": "ok"}, {"time": 457.86525074997917, "event": "start recording"}, {"time": 458.1031627500197, "event": "start"}, {"time": 458.1086124582216, "event": "show fixation"}, {"time": 458.6140892499825, "event": "show cue"}, {"time": 460.11963445832953, "event": "show fixation"}, {"time": 460.62925650004763, "event": "start sound"}, {"time": 460.62951387499925, "event": "start decision window"}, {"time": 461.77606966660824, "event": "response"}, {"time": 463.84269529161975, "event": "done"}]}, {"trial": {"cue_direction": "left", "stimulus": "A|A", "correct_response": "f", "left_cue_condition": 0.9, "stimA_condition": 0.5, "response": "f", "performance": "Correct", "rt": 2.9395650416845456}, "events": [{"time": 463.85611987498123, "event": "initialize", "status": "ok"}, {"time": 463.85621400002856, "event": "start recording"}, {"time": 464.0958909166511, "event": "start"}, {"time": 464.1029037500266, "event": "show fixation"}, {"time": 464.6079566250555, "event": "show cue"}, {"time": 466.11319704167545, "event": "show fixation"}, {"time": 466.6211338749854, "event": "start sound"}, {"time": 466.62147812498733, "event": "start decision window"}, {"time": 467.93617004167754, "event": "response"}, {"time": 469.5610462500481, "event": "done"}]}, {"trial": {"cue_direction": "left", "stimulus": "A|B", "correct_response": "f", "left_cue_condition": 0.9, "stimA_condition": 0.5, "response": "f", "performance": "Correct", "rt": 3.1225792915793136}, "events": [{"time": 469.5759577082936, "event": "initialize", "status": "ok"}, {"time": 469.57605324999895, "event": "start recording"}, {"time": 469.8129271666985, "event": "start"}, {"time": 469.8187795833219, "event": "show fixation"}, {"time": 470.3233209582977, "event": "show cue"}, {"time": 471.82845083333086, "event": "show fixation"}, {"time": 472.33733654161915, "event": "start sound"}, {"time": 472.33763204165734, "event": "start decision window"}, {"time": 473.3441893332638, "event": "response"}, {"time": 475.4602136249887, "event": "done"}]}, {"trial": {"cue_direction": "left", "stimulus": "B|A", "correct_response": "j", "left_cue_condition": 0.9, "stimA_condition": 0.5, "response": "j", "performance": "Correct", "rt": 2.542673166608438}, "events": [{"time": 475.4728150832234, "event": "initialize", "status": "ok"}, {"time": 475.4729062082479, "event": "start recording"}, {"time": 475.7121030417038, "event": "start"}, {"time": 475.719212875003, "event": "show fixation"}, {"time": 476.2235478750663, "event": "show cue"}, {"time": 477.72873383329716, "event": "show fixation"}, {"time": 478.2371932916576, "event": "start sound"}, {"time": 478.237482125056, "event": "start decision window"}, {"time": 479.0082507500192, "event": "response"}, {"time": 480.7801592082251, "event": "done"}]}, {"trial": {"cue_direction": "left", "stimulus": "A|A", "correct_response": "f", "left_cue_condition": 0.9, "stimA_condition": 0.5, "response": "f", "performance": "Correct", "rt": 3.6363956665154546}, "events": [{"time": 480.79398641665466, "event": "initialize", "status": "ok"}, {"time": 480.7940892082406, "event": "start recording"}, {"time": 481.04009695828427, "event": "start"}, {"time": 481.0467194583034, "event": "show fixation"}, {"time": 481.55181545822416, "event": "show cue"}, {"time": 483.05700712499674, "event": "show fixation"}, {"time": 483.5646218332695, "event": "start sound"}, {"time": 483.5648521250114, "event": "start decision window"}, {"time": 484.88039120822214, "event": "response"}, {"time": 487.20124962506816, "event": "done"}]}, {"trial": {"cue_direction": "left", "stimulus": "A|A", "correct_response": "f", "left_cue_condition": 0.9, "stimA_condition": 0.5, "response": "f", "performance": "Correct", "rt": 4.023193749948405}, "events": [{"time": 487.2145144583192, "event": "initialize", "status": "ok"}, {"time": 487.21460633329116, "event": "start recording"}, {"time": 487.45361054164823, "event": "start"}, {"time": 487.45967791660223, "event": "show fixation"}, {"time": 487.96383358328603, "event": "show cue"}, {"time": 489.48254229163285, "event": "show fixation"}, {"time": 489.9903880832717, "event": "start sound"}, {"time": 489.9906022083014, "event": "start decision window"}, {"time": 492.064477458247, "event": "response"}, {"time": 494.0137981249718, "event": "done"}]}, {"trial": {"cue_direction": "left", "stimulus": "B|B", "correct_response": "j", "left_cue_condition": 0.9, "stimA_condition": 0.5, "response": "j", "performance": "Correct", "rt": 2.4180580832762644}, "events": [{"time": 494.02729241666384, "event": "initialize", "status": "ok"}, {"time": 494.02738916664384, "event": "start recording"}, {"time": 494.26119475008454, "event": "start"}, {"time": 494.2662606666563, "event": "show fixation"}, {"time": 494.77046870824415, "event": "show cue"}, {"time": 496.2756863333052, "event": "show fixation"}, {"time": 496.78245504165534, "event": "start sound"}, {"time": 496.7826763333287, "event": "start decision window"}, {"time": 497.5365415000124, "event": "response"}, {"time": 499.2007364166202, "event": "done"}]}, {"trial": {"cue_direction": "left", "stimulus": "A|B", "correct_response": "f", "left_cue_condition": 0.9, "stimA_condition": 0.5, "response": "f", "performance": "Correct", "rt": 2.5600094583351165}, "events": [{"time": 499.21423454163596, "event": "initialize", "status": "ok"}, {"time": 499.21434087504167, "event": "start recording"}, {"time": 499.4481580000138, "event": "start"}, {"time": 499.45400008326396, "event": "show fixation"}, {"time": 499.9592506666668, "event": "show cue"}, {"time": 501.4651859999867, "event": "show fixation"}, {"time": 501.97333008330315, "event": "start sound"}, {"time": 501.9735449582804, "event": "start decision window"}, {"time": 502.7366344582988, "event": "response"}, {"time": 504.5335567500442, "event": "done"}]}, {"trial": {"cue_direction": "right", "stimulus": "B|B", "correct_response": "j", "left_cue_condition": 0.9, "stimA_condition": 0.5, "response": "j", "performance": "Correct", "rt": 3.647916875081137}, "events": [{"time": 504.5473376250593, "event": "initialize", "status": "ok"}, {"time": 504.5474399999948, "event": "start recording"}, {"time": 504.7883851666702, "event": "start"}, {"time": 504.7945852500852, "event": "show fixation"}, {"time": 505.2998368750559, "event": "show cue"}, {"time": 506.8049549582647, "event": "show fixation"}, {"time": 507.3128678749781, "event": "start sound"}, {"time": 507.3130927500315, "event": "start decision window"}, {"time": 508.76858266664203, "event": "response"}, {"time": 510.96101162501145, "event": "done"}]}, {"trial": {"cue_direction": "left", "stimulus": "B|B", "correct_response": "j", "left_cue_condition": 0.9, "stimA_condition": 0.5, "response": "j", "performance": "Correct", "rt": 3.749593499931507}, "events": [{"time": 510.97565395827405, "event": "initialize", "status": "ok"}, {"time": 510.97574608330615, "event": "start recording"}, {"time": 511.2136645000428, "event": "start"}, {"time": 511.21953741670586, "event": "show fixation"}, {"time": 511.7241493749898, "event": "show cue"}, {"time": 513.2292055416619, "event": "show fixation"}, {"time": 513.7383601666661, "event": "start sound"}, {"time": 513.7385953332996, "event": "start decision window"}, {"time": 515.6005421250593, "event": "response"}, {"time": 517.4881904582726, "event": "done"}]}, {"trial": {"cue_direction": "left", "stimulus": "B|A", "correct_response": "j", "left_cue_condition": 0.9, "stimA_condition": 0.5, "response": "j", "performance": "Correct", "rt": 3.212997875059955}, "events": [{"time": 517.5019849166274, "event": "initialize", "status": "ok"}, {"time": 517.5020782082574, "event": "start recording"}, {"time": 517.7374382083071, "event": "start"}, {"time": 517.7428925416898, "event": "show fixation"}, {"time": 518.2481153332628, "event": "show cue"}, {"time": 519.7531330416678, "event": "show fixation"}, {"time": 520.260674500023, "event": "start sound"}, {"time": 520.2609240832971, "event": "start decision window"}, {"time": 521.6807666249806, "event": "response"}, {"time": 523.473924083286, "event": "done"}]}, {"trial": {"cue_direction": "left", "stimulus": "A|A", "correct_response": "f", "left_cue_condition": 0.9, "stimA_condition": 0.5, "response": "f", "performance": "Correct", "rt": 3.587024625041522}, "events": [{"time": 523.487487000064, "event": "initialize", "status": "ok"}, {"time": 523.4875839166343, "event": "start recording"}, {"time": 523.7227109166561, "event": "start"}, {"time": 523.7290103749838, "event": "show fixation"}, {"time": 524.2336075416533, "event": "show cue"}, {"time": 525.7497864166507, "event": "show fixation"}, {"time": 526.2581106666476, "event": "start sound"}, {"time": 526.2583352082875, "event": "start decision window"}, {"time": 527.6487900832435, "event": "response"}, {"time": 529.8453615000471, "event": "done"}]}, {"trial": {"cue_direction": "left", "stimulus": "B|B", "correct_response": "j", "left_cue_condition": 0.9, "stimA_condition": 0.5, "response": "j", "performance": "Correct", "rt": 3.745868958416395}, "events": [{"time": 529.8592318332521, "event": "initialize", "status": "ok"}, {"time": 529.8593259166228, "event": "start recording"}, {"time": 530.0944079583278, "event": "start"}, {"time": 530.1006935416954, "event": "show fixation"}, {"time": 530.6048910000827, "event": "show cue"}, {"time": 532.1098703332245, "event": "show fixation"}, {"time": 532.6163250833051, "event": "start sound"}, {"time": 532.6165452916175, "event": "start decision window"}, {"time": 534.0650564166717, "event": "response"}, {"time": 536.36241695832, "event": "done"}]}, {"trial": {"cue_direction": "left", "stimulus": "A|A", "correct_response": "f", "left_cue_condition": 0.9, "stimA_condition": 0.5, "response": "f", "performance": "Correct", "rt": 3.8516763750230893}, "events": [{"time": 536.3759736666689, "event": "initialize", "status": "ok"}, {"time": 536.3760727082845, "event": "start recording"}, {"time": 536.602985000005, "event": "start"}, {"time": 536.608715166687, "event": "show fixation"}, {"time": 537.1130318333162, "event": "show cue"}, {"time": 538.6180615832563, "event": "show fixation"}, {"time": 539.1262369999895, "event": "start sound"}, {"time": 539.1264933332568, "event": "start decision window"}, {"time": 540.481028374983, "event": "response"}, {"time": 542.9781722916523, "event": "done"}]}, {"trial": {"cue_direction": "left", "stimulus": "A|B", "correct_response": "f", "left_cue_condition": 0.9, "stimA_condition": 0.5, "response": "f", "performance": "Correct", "rt": 3.317563125048764}, "events": [{"time": 542.9919869999867, "event": "initialize", "status": "ok"}, {"time": 542.9920802500565, "event": "start recording"}, {"time": 543.2288924166933, "event": "start"}, {"time": 543.2357029583072, "event": "show fixation"}, {"time": 543.7404185417108, "event": "show cue"}, {"time": 545.2455580832902, "event": "show fixation"}, {"time": 545.7577571666334, "event": "start sound"}, {"time": 545.7579762917012, "event": "start decision window"}, {"time": 547.1370995416073, "event": "response"}, {"time": 549.0755417082692, "event": "done"}]}, {"trial": {"cue_direction": "left", "stimulus": "A|A", "correct_response": "f", "left_cue_condition": 0.9, "stimA_condition": 0.5, "response": "f", "performance": "Correct", "rt": 3.031759583274834}, "events": [{"time": 549.0944808750646, "event": "initialize", "status": "ok"}, {"time": 549.0945907916175, "event": "start recording"}, {"time": 549.3252501667012, "event": "start"}, {"time": 549.3317902917042, "event": "show fixation"}, {"time": 549.8372349166311, "event": "show cue"}, {"time": 551.3438630416058, "event": "show fixation"}, {"time": 551.851717041689, "event": "start sound"}, {"time": 551.8519357916666, "event": "start decision window"}, {"time": 553.2650302500697, "event": "response"}, {"time": 554.8836973750731, "event": "done"}]}, {"trial": {"cue_direction": "left", "stimulus": "B|B", "correct_response": "j", "left_cue_condition": 0.9, "stimA_condition": 0.5, "response": "j", "performance": "Correct", "rt": 2.343167791608721}, "events": [{"time": 554.8983961250633, "event": "initialize", "status": "ok"}, {"time": 554.898497666698, "event": "start recording"}, {"time": 555.135421791696, "event": "start"}, {"time": 555.141914708307, "event": "show fixation"}, {"time": 555.6471873749979, "event": "show cue"}, {"time": 557.1521771249827, "event": "show fixation"}, {"time": 557.658855708316, "event": "start sound"}, {"time": 557.6590732916957, "event": "start decision window"}, {"time": 558.4333730000071, "event": "response"}, {"time": 560.0022433332633, "event": "done"}]}, {"trial": {"cue_direction": "right", "stimulus": "A|B", "correct_response": "j", "left_cue_condition": 0.9, "stimA_condition": 0.5, "response": "f", "performance": "Incorrect", "rt": 3.4708060832927004}, "events": [{"time": 560.0160399166634, "event": "initialize", "status": "ok"}, {"time": 560.016169041628, "event": "start recording"}, {"time": 560.2509058333235, "event": "start"}, {"time": 560.258334666607, "event": "show fixation"}, {"time": 560.7626378332498, "event": "show cue"}, {"time": 562.2688423332293, "event": "show fixation"}, {"time": 562.7765606250614, "event": "start sound"}, {"time": 562.7767675833311, "event": "start decision window"}, {"time": 563.7932983333012, "event": "response"}, {"time": 566.2475754582556, "event": "done"}]}, {"trial": {"cue_direction": "left", "stimulus": "B|A", "correct_response": "j", "left_cue_condition": 0.9, "stimA_condition": 0.5, "response": "j", "performance": "Correct", "rt": 3.2644107915693894}, "events": [{"time": 566.2607878332492, "event": "initialize", "status": "ok"}, {"time": 566.2608753333334, "event": "start recording"}, {"time": 566.4989654166857, "event": "start"}, {"time": 566.5047860832419, "event": "show fixation"}, {"time": 567.0148846249795, "event": "show cue"}, {"time": 568.5191820000764, "event": "show fixation"}, {"time": 569.0262891249731, "event": "start sound"}, {"time": 569.0265307083027, "event": "start decision window"}, {"time": 570.1934177500661, "event": "response"}, {"time": 572.2909436250338, "event": "done"}]}, {"trial": {"cue_direction": "left", "stimulus": "A|B", "correct_response": "f", "left_cue_condition": 0.9, "stimA_condition": 0.5, "response": "f", "performance": "Correct", "rt": 2.8572486668126658}, "events": [{"time": 572.3044891667087, "event": "initialize", "status": "ok"}, {"time": 572.30458729167, "event": "start recording"}, {"time": 572.5398089999799, "event": "start"}, {"time": 572.5463961666683, "event": "show fixation"}, {"time": 573.0519648332847, "event": "show cue"}, {"time": 574.5571537083015, "event": "show fixation"}, {"time": 575.0643870832864, "event": "start sound"}, {"time": 575.064597166609, "event": "start decision window"}, {"time": 576.1934977499768, "event": "response"}, {"time": 577.9218477500835, "event": "done"}]}, {"trial": {"cue_direction": "left", "stimulus": "B|A", "correct_response": "j", "left_cue_condition": 0.9, "stimA_condition": 0.5, "response": "j", "performance": "Correct", "rt": 4.010867749922909}, "events": [{"time": 577.9351782916347, "event": "initialize", "status": "ok"}, {"time": 577.9352630000794, "event": "start recording"}, {"time": 578.1694629166741, "event": "start"}, {"time": 578.1760347082745, "event": "show fixation"}, {"time": 578.6812745416537, "event": "show cue"}, {"time": 580.1852537500672, "event": "show fixation"}, {"time": 580.6929916666122, "event": "start sound"}, {"time": 580.6932008332806, "event": "start decision window"}, {"time": 582.2576537916902, "event": "response"}, {"time": 584.7040722500533, "event": "done"}]}, {"trial": {"cue_direction": "left", "stimulus": "B|A", "correct_response": "j", "left_cue_condition": 0.9, "stimA_condition": 0.5, "response": "j", "performance": "Correct", "rt": 3.4176998750772327}, "events": [{"time": 584.7175952083198, "event": "initialize", "status": "ok"}, {"time": 584.7176915416494, "event": "start recording"}, {"time": 584.9594904582482, "event": "start"}, {"time": 584.966213000007, "event": "show fixation"}, {"time": 585.4710940832738, "event": "show cue"}, {"time": 586.9762529999716, "event": "show fixation"}, {"time": 587.4839309999952, "event": "start sound"}, {"time": 587.4841417082353, "event": "start decision window"}, {"time": 588.6733442082768, "event": "response"}, {"time": 590.9018433332676, "event": "done"}]}, {"trial": {"cue_direction": "left", "stimulus": "B|B", "correct_response": "j", "left_cue_condition": 0.9, "stimA_condition": 0.5, "response": null, "performance": null, "rt": null}, "events": [{"time": 590.9154013332445, "event": "initialize", "status": "ok"}, {"time": 590.9154954166152, "event": "start recording"}, {"time": 591.1549882916734, "event": "start"}, {"time": 591.1623088750057, "event": "show fixation"}, {"time": 591.6680321249878, "event": "show cue"}, {"time": 593.173017083318, "event": "show fixation"}, {"time": 593.6809925832786, "event": "start sound"}, {"time": 593.6812152500497, "event": "start decision window"}, {"time": 598.6155254166806, "event": "response"}, {"time": 598.6157379582291, "event": "done"}]}, {"trial": {"cue_direction": "left", "stimulus": "B|A", "correct_response": "j", "left_cue_condition": 0.9, "stimA_condition": 0.5, "response": "j", "performance": "Correct", "rt": 2.405895874951966}, "events": [{"time": 598.629166000057, "event": "initialize", "status": "ok"}, {"time": 598.6292726666434, "event": "start recording"}, {"time": 598.8673100000015, "event": "start"}, {"time": 598.8739125832217, "event": "show fixation"}, {"time": 599.3793012083042, "event": "show cue"}, {"time": 600.8836043332703, "event": "show fixation"}, {"time": 601.4034672082635, "event": "start sound"}, {"time": 601.4036754166009, "event": "start decision window"}, {"time": 602.2737796666333, "event": "response"}, {"time": 603.8095742916921, "event": "done"}]}, {"trial": {"cue_direction": "right", "stimulus": "A|B", "correct_response": "j", "left_cue_condition": 0.5, "stimA_condition": 0.3, "response": "j", "performance": "Correct", "rt": 4.850495333434083}, "events": [{"time": 750.1684887083247, "event": "initialize", "status": "ok"}, {"time": 750.1686234166846, "event": "start recording"}, {"time": 750.3828324166825, "event": "start"}, {"time": 750.39158233325, "event": "show fixation"}, {"time": 750.8965407916112, "event": "show cue"}, {"time": 752.4018240000587, "event": "show fixation"}, {"time": 752.9099367082817, "event": "start sound"}, {"time": 752.9101697916631, "event": "start decision window"}, {"time": 755.3966083750129, "event": "response"}, {"time": 757.7606681666803, "event": "done"}]}, {"trial": {"cue_direction": "right", "stimulus": "B|B", "correct_response": "j", "left_cue_condition": 0.5, "stimA_condition": 0.3, "response": "j", "performance": "Correct", "rt": 2.638980666641146}, "events": [{"time": 757.7826288333163, "event": "initialize", "status": "ok"}, {"time": 757.7827286249958, "event": "start recording"}, {"time": 758.0123961250065, "event": "start"}, {"time": 758.0189244999783, "event": "show fixation"}, {"time": 758.5248490832746, "event": "show cue"}, {"time": 760.0298816666473, "event": "show fixation"}, {"time": 760.5368217499927, "event": "start sound"}, {"time": 760.5370371666504, "event": "start decision window"}, {"time": 761.4104698749725, "event": "response"}, {"time": 763.1760205000173, "event": "done"}]}, {"trial": {"cue_direction": "right", "stimulus": "A|B", "correct_response": "j", "left_cue_condition": 0.5, "stimA_condition": 0.3, "response": "j", "performance": "Correct", "rt": 2.4968302083434537}, "events": [{"time": 763.1960948749911, "event": "initialize", "status": "ok"}, {"time": 763.1962138332892, "event": "start recording"}, {"time": 763.4280150000704, "event": "start"}, {"time": 763.4348716250388, "event": "show fixation"}, {"time": 763.9404365416849, "event": "show cue"}, {"time": 765.4478395832703, "event": "show fixation"}, {"time": 765.9552791250171, "event": "start sound"}, {"time": 765.9554984166753, "event": "start decision window"}, {"time": 766.658404958318, "event": "response"}, {"time": 768.4523306667106, "event": "done"}]}, {"trial": {"cue_direction": "right", "stimulus": "A|B", "correct_response": "j", "left_cue_condition": 0.5, "stimA_condition": 0.3, "response": "j", "performance": "Correct", "rt": 2.772821875056252}, "events": [{"time": 768.4661205416778, "event": "initialize", "status": "ok"}, {"time": 768.4662137916312, "event": "start recording"}, {"time": 768.7018420416862, "event": "start"}, {"time": 768.7085880832747, "event": "show fixation"}, {"time": 769.2139598332578, "event": "show cue"}, {"time": 770.7192762499908, "event": "show fixation"}, {"time": 771.227690083324, "event": "start sound"}, {"time": 771.2279875417007, "event": "start decision window"}, {"time": 772.0505640417105, "event": "response"}, {"time": 774.0008104166482, "event": "done"}]}, {"trial": {"cue_direction": "left", "stimulus": "A|B", "correct_response": "f", "left_cue_condition": 0.5, "stimA_condition": 0.3, "response": "f", "performance": "Correct", "rt": 2.4780902499333024}, "events": [{"time": 774.0144612916047, "event": "initialize", "status": "ok"}, {"time": 774.0145466666436, "event": "start recording"}, {"time": 774.2455254582455, "event": "start"}, {"time": 774.2521204582881, "event": "show fixation"}, {"time": 774.7566522916313, "event": "show cue"}, {"time": 776.2612349166302, "event": "show fixation"}, {"time": 776.769026166643, "event": "start sound"}, {"time": 776.7692409582669, "event": "start decision window"}, {"time": 777.5704652916174, "event": "response"}, {"time": 779.2473331666552, "event": "done"}]}, {"trial": {"cue_direction": "left", "stimulus": "B|B", "correct_response": "j", "left_cue_condition": 0.5, "stimA_condition": 0.3, "response": "j", "performance": "Correct", "rt": 3.0797759583219886}, "events": [{"time": 779.2606556667015, "event": "initialize", "status": "ok"}, {"time": 779.2607416249812, "event": "start recording"}, {"time": 779.5037759583211, "event": "start"}, {"time": 779.5107735833153, "event": "show fixation"}, {"time": 780.0158988332842, "event": "show cue"}, {"time": 781.5215889583342, "event": "show fixation"}, {"time": 782.0286280000582, "event": "start sound"}, {"time": 782.0288506665966, "event": "start decision window"}, {"time": 782.866449083318, "event": "response"}, {"time": 785.1086290832609, "event": "done"}]}, {"trial": {"cue_direction": "left", "stimulus": "B|B", "correct_response": "j", "left_cue_condition": 0.5, "stimA_condition": 0.3, "response": "j", "performance": "Correct", "rt": 3.967135333456099}, "events": [{"time": 785.1218825832475, "event": "initialize", "status": "ok"}, {"time": 785.121977166622, "event": "start recording"}, {"time": 785.3319833750138, "event": "start"}, {"time": 785.3370769582689, "event": "show fixation"}, {"time": 785.8417127082357, "event": "show cue"}, {"time": 787.3471741667017, "event": "show fixation"}, {"time": 787.8539347082842, "event": "start sound"}, {"time": 787.8541646250524, "event": "start decision window"}, {"time": 789.3465190000134, "event": "response"}, {"time": 791.8213026666781, "event": "done"}]}, {"trial": {"cue_direction": "right", "stimulus": "B|B", "correct_response": "j", "left_cue_condition": 0.5, "stimA_condition": 0.3, "response": "j", "performance": "Correct", "rt": 2.6172064582351595}, "events": [{"time": 791.834721500054, "event": "initialize", "status": "ok"}, {"time": 791.8348235832527, "event": "start recording"}, {"time": 792.068532416597, "event": "start"}, {"time": 792.0747529166983, "event": "show fixation"}, {"time": 792.580359708285, "event": "show cue"}, {"time": 794.0845459583215, "event": "show fixation"}, {"time": 794.5909197500441, "event": "start sound"}, {"time": 794.5911519166548, "event": "start decision window"}, {"time": 795.1226125416579, "event": "response"}, {"time": 797.2083603332285, "event": "done"}]}, {"trial": {"cue_direction": "left", "stimulus": "B|B", "correct_response": "j", "left_cue_condition": 0.5, "stimA_condition": 0.3, "response": "j", "performance": "Correct", "rt": 3.1235164999961853}, "events": [{"time": 797.2220159582794, "event": "initialize", "status": "ok"}, {"time": 797.2221080416348, "event": "start recording"}, {"time": 797.4562449583318, "event": "start"}, {"time": 797.4629302499816, "event": "show fixation"}, {"time": 797.9680087500019, "event": "show cue"}, {"time": 799.4723995416425, "event": "show fixation"}, {"time": 799.9790156666422, "event": "start sound"}, {"time": 799.9792476666626, "event": "start decision window"}, {"time": 800.7544685000321, "event": "response"}, {"time": 803.1027681666892, "event": "done"}]}, {"trial": {"cue_direction": "left", "stimulus": "B|B", "correct_response": "j", "left_cue_condition": 0.5, "stimA_condition": 0.3, "response": "j", "performance": "Correct", "rt": 3.222665958222933}, "events": [{"time": 803.116403416614, "event": "initialize", "status": "ok"}, {"time": 803.1164970416576, "event": "start recording"}, {"time": 803.3500910416478, "event": "start"}, {"time": 803.3564745417098, "event": "show fixation"}, {"time": 803.8619739166461, "event": "show cue"}, {"time": 805.3664624582743, "event": "show fixation"}, {"time": 805.8757172500482, "event": "start sound"}, {"time": 805.8759309583111, "event": "start decision window"}, {"time": 807.0107949583326, "event": "response"}, {"time": 809.0986023750156, "event": "done"}]}, {"trial": {"cue_direction": "right", "stimulus": "A|A", "correct_response": "f", "left_cue_condition": 0.5, "stimA_condition": 0.3, "response": "f", "performance": "Correct", "rt": 2.404089375049807}, "events": [{"time": 809.112347041606, "event": "initialize", "status": "ok"}, {"time": 809.1124514582334, "event": "start recording"}, {"time": 809.3474768332671, "event": "start"}, {"time": 809.354354375042, "event": "show fixation"}, {"time": 809.8601766666397, "event": "show cue"}, {"time": 811.3647297082935, "event": "show fixation"}, {"time": 811.8726525416132, "event": "start sound"}, {"time": 811.8729014582932, "event": "start decision window"}, {"time": 812.610856916639, "event": "response"}, {"time": 814.2769925416214, "event": "done"}]}, {"trial": {"cue_direction": "right", "stimulus": "A|B", "correct_response": "j", "left_cue_condition": 0.5, "stimA_condition": 0.3, "response": "j", "performance": "Correct", "rt": 2.88202212494798}, "events": [{"time": 814.2990927916253, "event": "initialize", "status": "ok"}, {"time": 814.2991985832341, "event": "start recording"}, {"time": 814.5281121250009, "event": "start"}, {"time": 814.5353209166788, "event": "show fixation"}, {"time": 815.0398683750536, "event": "show cue"}, {"time": 816.5442615832435, "event": "show fixation"}, {"time": 817.0518400416477, "event": "start sound"}, {"time": 817.0520547500346, "event": "start decision window"}, {"time": 818.3389220417012, "event": "response"}, {"time": 819.9340792499715, "event": "done"}]}, {"trial": {"cue_direction": "left", "stimulus": "B|B", "correct_response": "j", "left_cue_condition": 0.5, "stimA_condition": 0.3, "response": "j", "performance": "Correct", "rt": 2.5530087500810623}, "events": [{"time": 819.9479722500546, "event": "initialize", "status": "ok"}, {"time": 819.9480617082445, "event": "start recording"}, {"time": 820.1918505416252, "event": "start"}, {"time": 820.1987305000657, "event": "show fixation"}, {"time": 820.7028783332789, "event": "show cue"}, {"time": 822.207885666634, "event": "show fixation"}, {"time": 822.7144679166377, "event": "start sound"}, {"time": 822.714710750035, "event": "start decision window"}, {"time": 823.4110280000605, "event": "response"}, {"time": 825.2677273750305, "event": "done"}]}, {"trial": {"cue_direction": "left", "stimulus": "A|A", "correct_response": "f", "left_cue_condition": 0.5, "stimA_condition": 0.3, "response": "f", "performance": "Correct", "rt": 2.7414732915349305}, "events": [{"time": 825.2820119999815, "event": "initialize", "status": "ok"}, {"time": 825.2821087916382, "event": "start recording"}, {"time": 825.5180571250385, "event": "start"}, {"time": 825.5247883333359, "event": "show fixation"}, {"time": 826.0297040416626, "event": "show cue"}, {"time": 827.5349393750075, "event": "show fixation"}, {"time": 828.0438858332345, "event": "start sound"}, {"time": 828.0441047500353, "event": "start decision window"}, {"time": 828.7230451666983, "event": "response"}, {"time": 830.7855800000252, "event": "done"}]}, {"trial": {"cue_direction": "right", "stimulus": "B|B", "correct_response": "j", "left_cue_condition": 0.5, "stimA_condition": 0.3, "response": "j", "performance": "Correct", "rt": 2.122558666742407}, "events": [{"time": 830.8003361666342, "event": "initialize", "status": "ok"}, {"time": 830.8004376667086, "event": "start recording"}, {"time": 831.0341739582364, "event": "start"}, {"time": 831.0408115000464, "event": "show fixation"}, {"time": 831.546267125057, "event": "show cue"}, {"time": 833.0551920416765, "event": "show fixation"}, {"time": 833.5614714582916, "event": "start sound"}, {"time": 833.5616971666459, "event": "start decision window"}, {"time": 834.0191124583362, "event": "response"}, {"time": 835.6842577916104, "event": "done"}]}, {"trial": {"cue_direction": "left", "stimulus": "A|A", "correct_response": "f", "left_cue_condition": 0.5, "stimA_condition": 0.3, "response": "f", "performance": "Correct", "rt": 2.9493749582907185}, "events": [{"time": 835.6987893332262, "event": "initialize", "status": "ok"}, {"time": 835.6988903749734, "event": "start recording"}, {"time": 835.9364996249788, "event": "start"}, {"time": 835.9428085832624, "event": "show fixation"}, {"time": 836.4474655416561, "event": "show cue"}, {"time": 837.9530169166392, "event": "show fixation"}, {"time": 838.4607293332228, "event": "start sound"}, {"time": 838.4609660416609, "event": "start decision window"}, {"time": 838.9951260000234, "event": "response"}, {"time": 841.4103428750532, "event": "done"}]}, {"trial": {"cue_direction": "left", "stimulus": "B|A", "correct_response": "j", "left_cue_condition": 0.5, "stimA_condition": 0.3, "response": "j", "performance": "Correct", "rt": 2.9479340834077448}, "events": [{"time": 841.4304861666169, "event": "initialize", "status": "ok"}, {"time": 841.4306406250689, "event": "start recording"}, {"time": 841.664442041656, "event": "start"}, {"time": 841.6717142499983, "event": "show fixation"}, {"time": 842.1772382082418, "event": "show cue"}, {"time": 843.6814997916808, "event": "show fixation"}, {"time": 844.1891625000862, "event": "start sound"}, {"time": 844.1893777500372, "event": "start decision window"}, {"time": 845.2350415833062, "event": "response"}, {"time": 847.1373140000505, "event": "done"}]}, {"trial": {"cue_direction": "left", "stimulus": "B|A", "correct_response": "j", "left_cue_condition": 0.5, "stimA_condition": 0.3, "response": "j", "performance": "Correct", "rt": 3.323048458318226}, "events": [{"time": 847.151219833293, "event": "initialize", "status": "ok"}, {"time": 847.1513177083107, "event": "start recording"}, {"time": 847.3858142916579, "event": "start"}, {"time": 847.3920266666682, "event": "show fixation"}, {"time": 847.8963862082455, "event": "show cue"}, {"time": 849.4004800000694, "event": "show fixation"}, {"time": 849.9157140000025, "event": "start sound"}, {"time": 849.9159475417109, "event": "start decision window"}, {"time": 850.7873577916762, "event": "response"}, {"time": 853.2389977083076, "event": "done"}]}, {"trial": {"cue_direction": "right", "stimulus": "B|B", "correct_response": "j", "left_cue_condition": 0.5, "stimA_condition": 0.3, "response": "j", "performance": "Correct", "rt": 2.3365050416905433}, "events": [{"time": 853.2525403333129, "event": "initialize", "status": "ok"}, {"time": 853.2526257500285, "event": "start recording"}, {"time": 853.4868282916723, "event": "start"}, {"time": 853.493638041662, "event": "show fixation"}, {"time": 853.9997289582388, "event": "show cue"}, {"time": 855.5042290000711, "event": "show fixation"}, {"time": 856.010369083262, "event": "start sound"}, {"time": 856.0105693333317, "event": "start decision window"}, {"time": 856.595462874975, "event": "response"}, {"time": 858.3470765000675, "event": "done"}]}, {"trial": {"cue_direction": "left", "stimulus": "B|A", "correct_response": "j", "left_cue_condition": 0.5, "stimA_condition": 0.3, "response": "j", "performance": "Correct", "rt": 3.688082333188504}, "events": [{"time": 858.3603361250134, "event": "initialize", "status": "ok"}, {"time": 858.3604220832931, "event": "start recording"}, {"time": 858.6057012500241, "event": "start"}, {"time": 858.6118978332961, "event": "show fixation"}, {"time": 859.1173060833244, "event": "show cue"}, {"time": 860.6239220416173, "event": "show fixation"}, {"time": 861.1316374166636, "event": "start sound"}, {"time": 861.1318558332277, "event": "start decision window"}, {"time": 862.3393690416124, "event": "response"}, {"time": 864.8199409582885, "event": "done"}]}, {"trial": {"cue_direction": "left", "stimulus": "B|A", "correct_response": "j", "left_cue_condition": 0.5, "stimA_condition": 0.3, "response": "j", "performance": "Correct", "rt": 2.3968224165728316}, "events": [{"time": 864.833795625018, "event": "initialize", "status": "ok"}, {"time": 864.8338783750078, "event": "start recording"}, {"time": 865.0425385832787, "event": "start"}, {"time": 865.0479862916982, "event": "show fixation"}, {"time": 865.552458750084, "event": "show cue"}, {"time": 867.0576831666986, "event": "show fixation"}, {"time": 867.5650188750587, "event": "start sound"}, {"time": 867.5652343750698, "event": "start decision window"}, {"time": 868.4195891666459, "event": "response"}, {"time": 869.9620585415978, "event": "done"}]}, {"trial": {"cue_direction": "right", "stimulus": "B|B", "correct_response": "j", "left_cue_condition": 0.5, "stimA_condition": 0.3, "response": "j", "performance": "Correct", "rt": 3.053224708302878}, "events": [{"time": 869.9822248333367, "event": "initialize", "status": "ok"}, {"time": 869.9823349167127, "event": "start recording"}, {"time": 870.2135809166357, "event": "start"}, {"time": 870.2208871666808, "event": "show fixation"}, {"time": 870.7263727083337, "event": "show cue"}, {"time": 872.233011791599, "event": "show fixation"}, {"time": 872.7396528333193, "event": "start sound"}, {"time": 872.7398814166663, "event": "start decision window"}, {"time": 873.619862166699, "event": "response"}, {"time": 875.7931086666649, "event": "done"}]}, {"trial": {"cue_direction": "left", "stimulus": "B|B", "correct_response": "j", "left_cue_condition": 0.5, "stimA_condition": 0.3, "response": "j", "performance": "Correct", "rt": 2.168460250017233}, "events": [{"time": 875.8067449582741, "event": "initialize", "status": "ok"}, {"time": 875.8068249583011, "event": "start recording"}, {"time": 876.0421299166046, "event": "start"}, {"time": 876.048908083234, "event": "show fixation"}, {"time": 876.5541210832307, "event": "show cue"}, {"time": 878.0588699165964, "event": "show fixation"}, {"time": 878.5654836250469, "event": "start sound"}, {"time": 878.565706375055, "event": "start decision window"}, {"time": 879.091795791639, "event": "response"}, {"time": 880.7341686666477, "event": "done"}]}, {"trial": {"cue_direction": "right", "stimulus": "B|B", "correct_response": "j", "left_cue_condition": 0.5, "stimA_condition": 0.3, "response": "j", "performance": "Correct", "rt": 2.9034573750104755}, "events": [{"time": 880.7477738332236, "event": "initialize", "status": "ok"}, {"time": 880.7478912082734, "event": "start recording"}, {"time": 880.9843424999854, "event": "start"}, {"time": 880.9914363750722, "event": "show fixation"}, {"time": 881.4971100416733, "event": "show cue"}, {"time": 883.0161766665988, "event": "show fixation"}, {"time": 883.5228215416428, "event": "start sound"}, {"time": 883.5230408333009, "event": "start decision window"}, {"time": 884.3397887082538, "event": "response"}, {"time": 886.4265134582529, "event": "done"}]}, {"trial": {"cue_direction": "right", "stimulus": "A|B", "correct_response": "j", "left_cue_condition": 0.5, "stimA_condition": 0.3, "response": "j", "performance": "Correct", "rt": 3.1575464584166184}, "events": [{"time": 886.4406012082472, "event": "initialize", "status": "ok"}, {"time": 886.4407035000622, "event": "start recording"}, {"time": 886.6805909583345, "event": "start"}, {"time": 886.6871629583184, "event": "show fixation"}, {"time": 887.1925887916004, "event": "show cue"}, {"time": 888.6970966249937, "event": "show fixation"}, {"time": 889.2047897500452, "event": "start sound"}, {"time": 889.2050029166276, "event": "start decision window"}, {"time": 890.6119371666573, "event": "response"}, {"time": 892.3625519999769, "event": "done"}]}, {"trial": {"cue_direction": "left", "stimulus": "B|A", "correct_response": "j", "left_cue_condition": 0.5, "stimA_condition": 0.3, "response": "j", "performance": "Correct", "rt": 2.454736291663721}, "events": [{"time": 892.3832900417037, "event": "initialize", "status": "ok"}, {"time": 892.3833977082977, "event": "start recording"}, {"time": 892.6137813333189, "event": "start"}, {"time": 892.620548625011, "event": "show fixation"}, {"time": 893.1258560832357, "event": "show cue"}, {"time": 894.6309417500161, "event": "show fixation"}, {"time": 895.1387662083143, "event": "start sound"}, {"time": 895.1389904583339, "event": "start decision window"}, {"time": 896.0199755416252, "event": "response"}, {"time": 897.5937297082273, "event": "done"}]}, {"trial": {"cue_direction": "right", "stimulus": "B|B", "correct_response": "j", "left_cue_condition": 0.5, "stimA_condition": 0.3, "response": "j", "performance": "Correct", "rt": 2.1750627084402367}, "events": [{"time": 897.6071021250682, "event": "initialize", "status": "ok"}, {"time": 897.6071972916834, "event": "start recording"}, {"time": 897.8409994166577, "event": "start"}, {"time": 897.8477328750305, "event": "show fixation"}, {"time": 898.3531557916431, "event": "show cue"}, {"time": 899.8581223333022, "event": "show fixation"}, {"time": 900.36473308329, "event": "start sound"}, {"time": 900.3649617083138, "event": "start decision window"}, {"time": 900.9160160833271, "event": "response"}, {"time": 902.5400263332995, "event": "done"}]}, {"trial": {"cue_direction": "right", "stimulus": "B|B", "correct_response": "j", "left_cue_condition": 0.5, "stimA_condition": 0.3, "response": "j", "performance": "Correct", "rt": 2.5834330416982993}, "events": [{"time": 902.5539305000566, "event": "initialize", "status": "ok"}, {"time": 902.5540372083196, "event": "start recording"}, {"time": 902.7879765832331, "event": "start"}, {"time": 902.7953094166005, "event": "show fixation"}, {"time": 903.3009959582705, "event": "show cue"}, {"time": 904.805306125083, "event": "show fixation"}, {"time": 905.3118702082429, "event": "start sound"}, {"time": 905.3120909582358, "event": "start decision window"}, {"time": 905.844146541669, "event": "response"}, {"time": 907.8955272082239, "event": "done"}]}, {"trial": {"cue_direction": "right", "stimulus": "B|A", "correct_response": "f", "left_cue_condition": 0.5, "stimA_condition": 0.3, "response": "f", "performance": "Correct", "rt": 2.8976150000235066}, "events": [{"time": 907.917602833244, "event": "initialize", "status": "ok"}, {"time": 907.9176980416523, "event": "start recording"}, {"time": 908.1434201666852, "event": "start"}, {"time": 908.150099708233, "event": "show fixation"}, {"time": 908.6551817500731, "event": "show cue"}, {"time": 910.1607510832837, "event": "show fixation"}, {"time": 910.6707254166249, "event": "start sound"}, {"time": 910.6709428332979, "event": "start decision window"}, {"time": 911.2520978333196, "event": "response"}, {"time": 913.5685602083104, "event": "done"}]}, {"trial": {"cue_direction": "right", "stimulus": "B|A", "correct_response": "f", "left_cue_condition": 0.5, "stimA_condition": 0.3, "response": "f", "performance": "Correct", "rt": 3.551307041780092}, "events": [{"time": 913.5826063333079, "event": "initialize", "status": "ok"}, {"time": 913.5826937500387, "event": "start recording"}, {"time": 913.8264675000682, "event": "start"}, {"time": 913.8333025416359, "event": "show fixation"}, {"time": 914.3388925417094, "event": "show cue"}, {"time": 915.8439217916457, "event": "show fixation"}, {"time": 916.3540394166484, "event": "start sound"}, {"time": 916.3542631666642, "event": "start decision window"}, {"time": 917.7321479582461, "event": "response"}, {"time": 919.905572083313, "event": "done"}]}, {"trial": {"cue_direction": "left", "stimulus": "B|B", "correct_response": "j", "left_cue_condition": 0.9, "stimA_condition": 0.3, "response": "j", "performance": "Correct", "rt": 2.9666210416471586}, "events": [{"time": 999.2023468333064, "event": "initialize", "status": "ok"}, {"time": 999.2025000416907, "event": "start recording"}, {"time": 999.4048182916595, "event": "start"}, {"time": 999.4128347082296, "event": "show fixation"}, {"time": 999.9177164583234, "event": "show cue"}, {"time": 1001.423684291658, "event": "show fixation"}, {"time": 1001.9307271250291, "event": "start sound"}, {"time": 1001.9309459582437, "event": "start decision window"}, {"time": 1003.1250515416032, "event": "response"}, {"time": 1004.8975692916429, "event": "done"}]}, {"trial": {"cue_direction": "left", "stimulus": "B|B", "correct_response": "j", "left_cue_condition": 0.9, "stimA_condition": 0.3, "response": "j", "performance": "Correct", "rt": 3.2791845832252875}, "events": [{"time": 1004.9115652916953, "event": "initialize", "status": "ok"}, {"time": 1004.9116504166741, "event": "start recording"}, {"time": 1005.1530472916784, "event": "start"}, {"time": 1005.1599768750602, "event": "show fixation"}, {"time": 1005.6649053749861, "event": "show cue"}, {"time": 1007.1700692916056, "event": "show fixation"}, {"time": 1007.6815297916764, "event": "start sound"}, {"time": 1007.6817573332228, "event": "start decision window"}, {"time": 1008.6952573750168, "event": "response"}, {"time": 1010.9609441250795, "event": "done"}]}, {"trial": {"cue_direction": "left", "stimulus": "B|B", "correct_response": "j", "left_cue_condition": 0.9, "stimA_condition": 0.3, "response": "j", "performance": "Correct", "rt": 2.2313726249849424}, "events": [{"time": 1010.9748851666227, "event": "initialize", "status": "ok"}, {"time": 1010.9749790832866, "event": "start recording"}, {"time": 1011.2121163333068, "event": "start"}, {"time": 1011.2185459166067, "event": "show fixation"}, {"time": 1011.7240747082978, "event": "show cue"}, {"time": 1013.2294899167027, "event": "show fixation"}, {"time": 1013.7394039166393, "event": "start sound"}, {"time": 1013.7396378749982, "event": "start decision window"}, {"time": 1014.3570380832534, "event": "response"}, {"time": 1015.9710124583216, "event": "done"}]}, {"trial": {"cue_direction": "right", "stimulus": "B|B", "correct_response": "j", "left_cue_condition": 0.9, "stimA_condition": 0.3, "response": "j", "performance": "Correct", "rt": 2.3574633749667555}, "events": [{"time": 1015.9847338332329, "event": "initialize", "status": "ok"}, {"time": 1015.9848232916556, "event": "start recording"}, {"time": 1016.2197758749826, "event": "start"}, {"time": 1016.2266204166226, "event": "show fixation"}, {"time": 1016.7322340416722, "event": "show cue"}, {"time": 1018.2376394167077, "event": "show fixation"}, {"time": 1018.7452207916649, "event": "start sound"}, {"time": 1018.7454501250759, "event": "start decision window"}, {"time": 1019.3330194582231, "event": "response"}, {"time": 1021.1029155832948, "event": "done"}]}, {"trial": {"cue_direction": "left", "stimulus": "B|B", "correct_response": "j", "left_cue_condition": 0.9, "stimA_condition": 0.3, "response": "j", "performance": "Correct", "rt": 2.7765841250075027}, "events": [{"time": 1021.1167871250072, "event": "initialize", "status": "ok"}, {"time": 1021.1168899167096, "event": "start recording"}, {"time": 1021.3571956666419, "event": "start"}, {"time": 1021.3640844583279, "event": "show fixation"}, {"time": 1021.8695375416428, "event": "show cue"}, {"time": 1023.3738828750793, "event": "show fixation"}, {"time": 1023.8805742500117, "event": "start sound"}, {"time": 1023.8808476666454, "event": "start decision window"}, {"time": 1024.4051437500166, "event": "response"}, {"time": 1026.6574330416042, "event": "done"}]}, {"trial": {"cue_direction": "left", "stimulus": "B|B", "correct_response": "j", "left_cue_condition": 0.9, "stimA_condition": 0.3, "response": "j", "performance": "Correct", "rt": 3.3829950416693464}, "events": [{"time": 1026.6712597917067, "event": "initialize", "status": "ok"}, {"time": 1026.6713392916135, "event": "start recording"}, {"time": 1026.9068960417062, "event": "start"}, {"time": 1026.9135965832975, "event": "show fixation"}, {"time": 1027.4190727917012, "event": "show cue"}, {"time": 1028.9236150416546, "event": "show fixation"}, {"time": 1029.430218333262, "event": "start sound"}, {"time": 1029.4304231250426, "event": "start decision window"}, {"time": 1031.204884708277, "event": "response"}, {"time": 1032.8134204166709, "event": "done"}]}, {"trial": {"cue_direction": "left", "stimulus": "B|B", "correct_response": "j", "left_cue_condition": 0.9, "stimA_condition": 0.3, "response": "j", "performance": "Correct", "rt": 2.4456086249556392}, "events": [{"time": 1032.8357414166676, "event": "initialize", "status": "ok"}, {"time": 1032.8358442500466, "event": "start recording"}, {"time": 1033.0330350000877, "event": "start"}, {"time": 1033.0378487083362, "event": "show fixation"}, {"time": 1033.5421392500866, "event": "show cue"}, {"time": 1035.0472650416195, "event": "show fixation"}, {"time": 1035.5542032916564, "event": "start sound"}, {"time": 1035.5544223750476, "event": "start decision window"}, {"time": 1036.373001625063, "event": "response"}, {"time": 1038.0000337916426, "event": "done"}]}, {"trial": {"cue_direction": "left", "stimulus": "B|A", "correct_response": "j", "left_cue_condition": 0.9, "stimA_condition": 0.3, "response": "j", "performance": "Correct", "rt": 3.526083833305165}, "events": [{"time": 1038.0134739166824, "event": "initialize", "status": "ok"}, {"time": 1038.0135672499891, "event": "start recording"}, {"time": 1038.2556408750825, "event": "start"}, {"time": 1038.2627466666745, "event": "show fixation"}, {"time": 1038.7683687499957, "event": "show cue"}, {"time": 1040.2730573749868, "event": "show fixation"}, {"time": 1040.780685374979, "event": "start sound"}, {"time": 1040.78090408328, "event": "start decision window"}, {"time": 1042.2130811250536, "event": "response"}, {"time": 1044.3069897916866, "event": "done"}]}, {"trial": {"cue_direction": "left", "stimulus": "A|B", "correct_response": "f", "left_cue_condition": 0.9, "stimA_condition": 0.3, "response": "f", "performance": "Correct", "rt": 3.495380958309397}, "events": [{"time": 1044.320861416636, "event": "initialize", "status": "ok"}, {"time": 1044.3209614582593, "event": "start recording"}, {"time": 1044.5499345416902, "event": "start"}, {"time": 1044.5564418750582, "event": "show fixation"}, {"time": 1045.0608073750045, "event": "show cue"}, {"time": 1046.5650170000736, "event": "show fixation"}, {"time": 1047.0724002916832, "event": "start sound"}, {"time": 1047.0727018333273, "event": "start decision window"}, {"time": 1048.2451698749792, "event": "response"}, {"time": 1050.5680757500231, "event": "done"}]}, {"trial": {"cue_direction": "left", "stimulus": "B|A", "correct_response": "j", "left_cue_condition": 0.9, "stimA_condition": 0.3, "response": "j", "performance": "Correct", "rt": 2.9040655000135303}, "events": [{"time": 1050.5815157917095, "event": "initialize", "status": "ok"}, {"time": 1050.5816144166747, "event": "start recording"}, {"time": 1050.818478000001, "event": "start"}, {"time": 1050.826372749987, "event": "show fixation"}, {"time": 1051.3324083749903, "event": "show cue"}, {"time": 1052.8374918750487, "event": "show fixation"}, {"time": 1053.3449980416335, "event": "start sound"}, {"time": 1053.3452334166504, "event": "start decision window"}, {"time": 1054.3734711667057, "event": "response"}, {"time": 1056.2493010832695, "event": "done"}]}, {"trial": {"cue_direction": "right", "stimulus": "B|B", "correct_response": "j", "left_cue_condition": 0.9, "stimA_condition": 0.3, "response": "j", "performance": "Correct", "rt": 2.5556839166674763}, "events": [{"time": 1056.2632364166202, "event": "initialize", "status": "ok"}, {"time": 1056.2633278750582, "event": "start recording"}, {"time": 1056.505773208337, "event": "start"}, {"time": 1056.5118081250694, "event": "show fixation"}, {"time": 1057.0170537083177, "event": "show cue"}, {"time": 1058.5214767500293, "event": "show fixation"}, {"time": 1059.0289797500009, "event": "start sound"}, {"time": 1059.0291913750116, "event": "start decision window"}, {"time": 1059.5735750832828, "event": "response"}, {"time": 1061.584877541638, "event": "done"}]}, {"trial": {"cue_direction": "right", "stimulus": "B|B", "correct_response": "j", "left_cue_condition": 0.9, "stimA_condition": 0.3, "response": "j", "performance": "Correct", "rt": 3.0148819165769964}, "events": [{"time": 1061.5982514582574, "event": "initialize", "status": "ok"}, {"time": 1061.5983482082374, "event": "start recording"}, {"time": 1061.8358924166532, "event": "start"}, {"time": 1061.8423546249978, "event": "show fixation"}, {"time": 1062.3465505000204, "event": "show cue"}, {"time": 1063.8514031666564, "event": "show fixation"}, {"time": 1064.357972083264, "event": "start sound"}, {"time": 1064.358197708265, "event": "start decision window"}, {"time": 1065.3655957916053, "event": "response"}, {"time": 1067.3730814167066, "event": "done"}]}, {"trial": {"cue_direction": "left", "stimulus": "B|B", "correct_response": "j", "left_cue_condition": 0.9, "stimA_condition": 0.3, "response": "j", "performance": "Correct", "rt": 3.0825385416392237}, "events": [{"time": 1067.3872876249952, "event": "initialize", "status": "ok"}, {"time": 1067.387381416629, "event": "start recording"}, {"time": 1067.621795666637, "event": "start"}, {"time": 1067.6281655832427, "event": "show fixation"}, {"time": 1068.1332668332616, "event": "show cue"}, {"time": 1069.6378537082346, "event": "show fixation"}, {"time": 1070.1440912917024, "event": "start sound"}, {"time": 1070.1443638750352, "event": "start decision window"}, {"time": 1070.7416949166218, "event": "response"}, {"time": 1073.226904375013, "event": "done"}]}, {"trial": {"cue_direction": "left", "stimulus": "A|B", "correct_response": "f", "left_cue_condition": 0.9, "stimA_condition": 0.3, "response": "f", "performance": "Correct", "rt": 3.4744333749404177}, "events": [{"time": 1073.2405772916973, "event": "initialize", "status": "ok"}, {"time": 1073.240686541656, "event": "start recording"}, {"time": 1073.4805305000627, "event": "start"}, {"time": 1073.4870358749758, "event": "show fixation"}, {"time": 1073.9923981666798, "event": "show cue"}, {"time": 1075.4965934582287, "event": "show fixation"}, {"time": 1076.0048818750074, "event": "start sound"}, {"time": 1076.0050942916423, "event": "start decision window"}, {"time": 1077.0616682083346, "event": "response"}, {"time": 1079.4795301666018, "event": "done"}]}, {"trial": {"cue_direction": "left", "stimulus": "B|B", "correct_response": "j", "left_cue_condition": 0.9, "stimA_condition": 0.3, "response": "j", "performance": "Correct", "rt": 3.067032541730441}, "events": [{"time": 1079.503714166698, "event": "initialize", "status": "ok"}, {"time": 1079.5038192917127, "event": "start recording"}, {"time": 1079.729754583328, "event": "start"}, {"time": 1079.7370830832515, "event": "show fixation"}, {"time": 1080.2425492082257, "event": "show cue"}, {"time": 1081.747167458292, "event": "show fixation"}, {"time": 1082.2562951250002, "event": "start sound"}, {"time": 1082.2565585416742, "event": "start decision window"}, {"time": 1082.8699200833216, "event": "response"}, {"time": 1085.3235930833034, "event": "done"}]}, {"trial": {"cue_direction": "left", "stimulus": "A|A", "correct_response": "f", "left_cue_condition": 0.9, "stimA_condition": 0.3, "response": "f", "performance": "Correct", "rt": 3.004681625054218}, "events": [{"time": 1085.3370177500183, "event": "initialize", "status": "ok"}, {"time": 1085.3371112082386, "event": "start recording"}, {"time": 1085.5742695833324, "event": "start"}, {"time": 1085.5816084583057, "event": "show fixation"}, {"time": 1086.0871635416988, "event": "show cue"}, {"time": 1087.5921690000687, "event": "show fixation"}, {"time": 1088.1003831666894, "event": "start sound"}, {"time": 1088.1006098750513, "event": "start decision window"}, {"time": 1089.0778369166655, "event": "response"}, {"time": 1091.1052945416886, "event": "done"}]}, {"trial": {"cue_direction": "left", "stimulus": "A|B", "correct_response": "f", "left_cue_condition": 0.9, "stimA_condition": 0.3, "response": "f", "performance": "Correct", "rt": 3.689397874986753}, "events": [{"time": 1091.1189994582674, "event": "initialize", "status": "ok"}, {"time": 1091.1190922083333, "event": "start recording"}, {"time": 1091.356098708231, "event": "start"}, {"time": 1091.3604260833235, "event": "show fixation"}, {"time": 1091.8656330832746, "event": "show cue"}, {"time": 1093.3703668750823, "event": "show fixation"}, {"time": 1093.8778721666895, "event": "start sound"}, {"time": 1093.878085458302, "event": "start decision window"}, {"time": 1095.4779824166326, "event": "response"}, {"time": 1097.5674861666048, "event": "done"}]}, {"trial": {"cue_direction": "left", "stimulus": "A|B", "correct_response": "f", "left_cue_condition": 0.9, "stimA_condition": 0.3, "response": "f", "performance": "Correct", "rt": 2.0100973750231788}, "events": [{"time": 1097.5811080416897, "event": "initialize", "status": "ok"}, {"time": 1097.5811968750786, "event": "start recording"}, {"time": 1097.819537708303, "event": "start"}, {"time": 1097.8253913333174, "event": "show fixation"}, {"time": 1098.3308682083152, "event": "show cue"}, {"time": 1099.8356456666952, "event": "show fixation"}, {"time": 1100.343347291695, "event": "start sound"}, {"time": 1100.3435678333044, "event": "start decision window"}, {"time": 1100.7419838750502, "event": "response"}, {"time": 1102.353668124997, "event": "done"}]}, {"trial": {"cue_direction": "left", "stimulus": "B|B", "correct_response": "j", "left_cue_condition": 0.9, "stimA_condition": 0.3, "response": "j", "performance": "Correct", "rt": 2.959266750025563}, "events": [{"time": 1102.3673447082983, "event": "initialize", "status": "ok"}, {"time": 1102.3674332082737, "event": "start recording"}, {"time": 1102.578149333247, "event": "start"}, {"time": 1102.5838944582501, "event": "show fixation"}, {"time": 1103.0884590832284, "event": "show cue"}, {"time": 1104.593729000073, "event": "show fixation"}, {"time": 1105.1004247500096, "event": "start sound"}, {"time": 1105.100643999991, "event": "start decision window"}, {"time": 1105.7660840000026, "event": "response"}, {"time": 1108.0599137082463, "event": "done"}]}, {"trial": {"cue_direction": "left", "stimulus": "B|B", "correct_response": "j", "left_cue_condition": 0.9, "stimA_condition": 0.3, "response": "j", "performance": "Correct", "rt": 3.1962072084425017}, "events": [{"time": 1108.073485208326, "event": "initialize", "status": "ok"}, {"time": 1108.0735954166157, "event": "start recording"}, {"time": 1108.308157833293, "event": "start"}, {"time": 1108.314897916629, "event": "show fixation"}, {"time": 1108.8200756666483, "event": "show cue"}, {"time": 1110.324756708229, "event": "show fixation"}, {"time": 1110.8315969583346, "event": "start sound"}, {"time": 1110.8318047916982, "event": "start decision window"}, {"time": 1112.1341422082623, "event": "response"}, {"time": 1114.0280138333328, "event": "done"}]}, {"trial": {"cue_direction": "left", "stimulus": "A|B", "correct_response": "f", "left_cue_condition": 0.9, "stimA_condition": 0.3, "response": "f", "performance": "Correct", "rt": 2.4424307083245367}, "events": [{"time": 1114.0407970416127, "event": "initialize", "status": "ok"}, {"time": 1114.0408830832457, "event": "start recording"}, {"time": 1114.2774881250225, "event": "start"}, {"time": 1114.2842964582378, "event": "show fixation"}, {"time": 1114.7893634166103, "event": "show cue"}, {"time": 1116.2954774165992, "event": "show fixation"}, {"time": 1116.8034275000682, "event": "start sound"}, {"time": 1116.8036641665967, "event": "start decision window"}, {"time": 1117.3662317083217, "event": "response"}, {"time": 1119.246097000083, "event": "done"}]}, {"trial": {"cue_direction": "left", "stimulus": "B|B", "correct_response": "j", "left_cue_condition": 0.9, "stimA_condition": 0.3, "response": "j", "performance": "Correct", "rt": 3.016518500051461}, "events": [{"time": 1119.259679666604, "event": "initialize", "status": "ok"}, {"time": 1119.2597639582818, "event": "start recording"}, {"time": 1119.4994470833335, "event": "start"}, {"time": 1119.5061786250444, "event": "show fixation"}, {"time": 1120.0108545832336, "event": "show cue"}, {"time": 1121.5152690416435, "event": "show fixation"}, {"time": 1122.0226772916503, "event": "start sound"}, {"time": 1122.022906958242, "event": "start decision window"}, {"time": 1122.566345750005, "event": "response"}, {"time": 1125.039427666692, "event": "done"}]}, {"trial": {"cue_direction": "left", "stimulus": "A|B", "correct_response": "f", "left_cue_condition": 0.9, "stimA_condition": 0.3, "response": "f", "performance": "Correct", "rt": 3.845086249988526}, "events": [{"time": 1125.0534174166387, "event": "initialize", "status": "ok"}, {"time": 1125.053518666653, "event": "start recording"}, {"time": 1125.2924557082588, "event": "start"}, {"time": 1125.2940940832486, "event": "show fixation"}, {"time": 1125.7982764582848, "event": "show cue"}, {"time": 1127.304706875002, "event": "show fixation"}, {"time": 1127.8123226666357, "event": "start sound"}, {"time": 1127.8125620832434, "event": "start decision window"}, {"time": 1129.1581709166057, "event": "response"}, {"time": 1131.6576509166043, "event": "done"}]}, {"trial": {"cue_direction": "left", "stimulus": "A|B", "correct_response": "f", "left_cue_condition": 0.9, "stimA_condition": 0.3, "response": "f", "performance": "Correct", "rt": 3.6141861667856574}, "events": [{"time": 1131.671407500049, "event": "initialize", "status": "ok"}, {"time": 1131.6715062500443, "event": "start recording"}, {"time": 1131.900991374976, "event": "start"}, {"time": 1131.9025184166385, "event": "show fixation"}, {"time": 1132.406811041641, "event": "show cue"}, {"time": 1133.9124652083265, "event": "show fixation"}, {"time": 1134.420056291623, "event": "start sound"}, {"time": 1134.4202704166528, "event": "start decision window"}, {"time": 1135.6544717082288, "event": "response"}, {"time": 1138.0344594583148, "event": "done"}]}, {"trial": {"cue_direction": "left", "stimulus": "A|B", "correct_response": "f", "left_cue_condition": 0.9, "stimA_condition": 0.3, "response": "f", "performance": "Correct", "rt": 3.0001264582388103}, "events": [{"time": 1138.0486109167105, "event": "initialize", "status": "ok"}, {"time": 1138.048698791652, "event": "start recording"}, {"time": 1138.2861074582906, "event": "start"}, {"time": 1138.291896791663, "event": "show fixation"}, {"time": 1138.7976717082784, "event": "show cue"}, {"time": 1140.3020765832625, "event": "show fixation"}, {"time": 1140.8093507082667, "event": "start sound"}, {"time": 1140.8095792500535, "event": "start decision window"}, {"time": 1141.4957508749794, "event": "response"}, {"time": 1143.8097080000443, "event": "done"}]}, {"trial": {"cue_direction": "left", "stimulus": "A|B", "correct_response": "f", "left_cue_condition": 0.9, "stimA_condition": 0.3, "response": "f", "performance": "Correct", "rt": 2.8981382915517315}, "events": [{"time": 1143.8235394583317, "event": "initialize", "status": "ok"}, {"time": 1143.8236265833257, "event": "start recording"}, {"time": 1144.0587560416898, "event": "start"}, {"time": 1144.0655698332703, "event": "show fixation"}, {"time": 1144.5708273332566, "event": "show cue"}, {"time": 1146.075462250039, "event": "show fixation"}, {"time": 1146.5830740416422, "event": "start sound"}, {"time": 1146.583342625061, "event": "start decision window"}, {"time": 1147.4144412082387, "event": "response"}, {"time": 1149.4814831250114, "event": "done"}]}, {"trial": {"cue_direction": "left", "stimulus": "B|A", "correct_response": "j", "left_cue_condition": 0.9, "stimA_condition": 0.3, "response": "j", "performance": "Correct", "rt": 2.896227666758932}, "events": [{"time": 1149.5035683332244, "event": "initialize", "status": "ok"}, {"time": 1149.503671833314, "event": "start recording"}, {"time": 1149.7342558749951, "event": "start"}, {"time": 1149.7359746666625, "event": "show fixation"}, {"time": 1150.2403255832614, "event": "show cue"}, {"time": 1151.7464312500088, "event": "show fixation"}, {"time": 1152.2542418750236, "event": "start sound"}, {"time": 1152.254480708274, "event": "start decision window"}, {"time": 1153.3667698332574, "event": "response"}, {"time": 1155.1507101666648, "event": "done"}]}, {"trial": {"cue_direction": "left", "stimulus": "A|B", "correct_response": "f", "left_cue_condition": 0.9, "stimA_condition": 0.3, "response": "f", "performance": "Correct", "rt": 2.7862058749888092}, "events": [{"time": 1155.1644387916895, "event": "initialize", "status": "ok"}, {"time": 1155.1645477082347, "event": "start recording"}, {"time": 1155.40238866664, "event": "start"}, {"time": 1155.4039341249736, "event": "show fixation"}, {"time": 1155.9081920000026, "event": "show cue"}, {"time": 1157.4129418332595, "event": "show fixation"}, {"time": 1157.9205977083184, "event": "start sound"}, {"time": 1157.9208241250599, "event": "start decision window"}, {"time": 1158.9664681249997, "event": "response"}, {"time": 1160.7070322916843, "event": "done"}]}, {"trial": {"cue_direction": "left", "stimulus": "B|B", "correct_response": "j", "left_cue_condition": 0.9, "stimA_condition": 0.3, "response": "j", "performance": "Correct", "rt": 3.0842181666521356}, "events": [{"time": 1160.7206320000114, "event": "initialize", "status": "ok"}, {"time": 1160.7207345416537, "event": "start recording"}, {"time": 1160.9627105832333, "event": "start"}, {"time": 1160.9702303750673, "event": "show fixation"}, {"time": 1161.476219083299, "event": "show cue"}, {"time": 1162.985297416686, "event": "show fixation"}, {"time": 1163.4962615416152, "event": "start sound"}, {"time": 1163.4964907916728, "event": "start decision window"}, {"time": 1164.310566375032, "event": "response"}, {"time": 1166.580711208284, "event": "done"}]}, {"trial": {"cue_direction": "left", "stimulus": "A|B", "correct_response": "f", "left_cue_condition": 0.9, "stimA_condition": 0.3, "response": "f", "performance": "Correct", "rt": 2.077109416597523}, "events": [{"time": 1166.5998576666461, "event": "initialize", "status": "ok"}, {"time": 1166.5999602916418, "event": "start recording"}, {"time": 1166.8328830417013, "event": "start"}, {"time": 1166.8400975000113, "event": "show fixation"}, {"time": 1167.3454435416497, "event": "show cue"}, {"time": 1168.8499860832235, "event": "show fixation"}, {"time": 1169.357894458226, "event": "start sound"}, {"time": 1169.3580965832807, "event": "start decision window"}, {"time": 1169.9269735832931, "event": "response"}, {"time": 1171.4352110000327, "event": "done"}]}, {"trial": {"cue_direction": "left", "stimulus": "A|A", "correct_response": "f", "left_cue_condition": 0.5, "stimA_condition": 0.9, "response": "f", "performance": "Correct", "rt": 4.089560958207585}, "events": [{"time": 1283.793246541638, "event": "initialize", "status": "ok"}, {"time": 1283.7933927082922, "event": "start recording"}, {"time": 1283.9931907916907, "event": "start"}, {"time": 1284.0016619166126, "event": "show fixation"}, {"time": 1284.5069262082689, "event": "show cue"}, {"time": 1286.0118877500063, "event": "show fixation"}, {"time": 1286.520205458277, "event": "start sound"}, {"time": 1286.5204509582836, "event": "start decision window"}, {"time": 1288.566929708235, "event": "response"}, {"time": 1290.610015125014, "event": "done"}]}, {"trial": {"cue_direction": "right", "stimulus": "A|A", "correct_response": "f", "left_cue_condition": 0.5, "stimA_condition": 0.9, "response": "f", "performance": "Correct", "rt": 3.162722500041127}, "events": [{"time": 1290.6239712917013, "event": "initialize", "status": "ok"}, {"time": 1290.624067125027, "event": "start recording"}, {"time": 1290.8654424583074, "event": "start"}, {"time": 1290.8723035416333, "event": "show fixation"}, {"time": 1291.3780014166841, "event": "show cue"}, {"time": 1292.8836932500126, "event": "show fixation"}, {"time": 1293.394803666626, "event": "start sound"}, {"time": 1293.395035375026, "event": "start decision window"}, {"time": 1294.1992694166256, "event": "response"}, {"time": 1296.5577598332893, "event": "done"}]}, {"trial": {"cue_direction": "right", "stimulus": "A|A", "correct_response": "f", "left_cue_condition": 0.5, "stimA_condition": 0.9, "response": "f", "performance": "Correct", "rt": 2.3575529999798164}, "events": [{"time": 1296.5715697916457, "event": "initialize", "status": "ok"}, {"time": 1296.5716699999757, "event": "start recording"}, {"time": 1296.810651125037, "event": "start"}, {"time": 1296.8182183332974, "event": "show fixation"}, {"time": 1297.322657041601, "event": "show cue"}, {"time": 1298.8271070416085, "event": "show fixation"}, {"time": 1299.3347759583266, "event": "start sound"}, {"time": 1299.3350390832638, "event": "start decision window"}, {"time": 1300.1670161666116, "event": "response"}, {"time": 1301.6925940416986, "event": "done"}]}, {"trial": {"cue_direction": "left", "stimulus": "B|A", "correct_response": "j", "left_cue_condition": 0.5, "stimA_condition": 0.9, "response": "j", "performance": "Correct", "rt": 3.1208233749493957}, "events": [{"time": 1301.7063077916391, "event": "initialize", "status": "ok"}, {"time": 1301.7064082500292, "event": "start recording"}, {"time": 1301.9458096249728, "event": "start"}, {"time": 1301.9529252916109, "event": "show fixation"}, {"time": 1302.4586654166924, "event": "show cue"}, {"time": 1303.9656564582838, "event": "show fixation"}, {"time": 1304.473591833259, "event": "start sound"}, {"time": 1304.4738293749979, "event": "start decision window"}, {"time": 1305.2871810832294, "event": "response"}, {"time": 1307.5946551250527, "event": "done"}]}, {"trial": {"cue_direction": "left", "stimulus": "A|B", "correct_response": "f", "left_cue_condition": 0.5, "stimA_condition": 0.9, "response": "f", "performance": "Correct", "rt": 2.4774550416041166}, "events": [{"time": 1307.6081285416149, "event": "initialize", "status": "ok"}, {"time": 1307.608235416701, "event": "start recording"}, {"time": 1307.8460394582944, "event": "start"}, {"time": 1307.8533900416223, "event": "show fixation"}, {"time": 1308.3585200832458, "event": "show cue"}, {"time": 1309.8660765832756, "event": "show fixation"}, {"time": 1310.3735807082849, "event": "start sound"}, {"time": 1310.3737830000464, "event": "start decision window"}, {"time": 1311.1112750417087, "event": "response"}, {"time": 1312.8512415416772, "event": "done"}]}, {"trial": {"cue_direction": "right", "stimulus": "A|B", "correct_response": "j", "left_cue_condition": 0.5, "stimA_condition": 0.9, "response": "j", "performance": "Correct", "rt": 3.2724635833874345}, "events": [{"time": 1312.865419000038, "event": "initialize", "status": "ok"}, {"time": 1312.8655175416498, "event": "start recording"}, {"time": 1313.1018444166984, "event": "start"}, {"time": 1313.1092523332918, "event": "show fixation"}, {"time": 1313.6148259582696, "event": "show cue"}, {"time": 1315.1200271666748, "event": "show fixation"}, {"time": 1315.6276922500692, "event": "start sound"}, {"time": 1315.62789362506, "event": "start decision window"}, {"time": 1316.6632802082459, "event": "response"}, {"time": 1318.9003599582938, "event": "done"}]}, {"trial": {"cue_direction": "left", "stimulus": "A|A", "correct_response": "f", "left_cue_condition": 0.5, "stimA_condition": 0.9, "response": "f", "performance": "Correct", "rt": 4.184570249984972}, "events": [{"time": 1318.9140427082311, "event": "initialize", "status": "ok"}, {"time": 1318.9141297499882, "event": "start recording"}, {"time": 1319.153216500068, "event": "start"}, {"time": 1319.1613678750582, "event": "show fixation"}, {"time": 1319.6659175832756, "event": "show cue"}, {"time": 1321.1703105416382, "event": "show fixation"}, {"time": 1321.6783358332468, "event": "start sound"}, {"time": 1321.6785774582531, "event": "start decision window"}, {"time": 1323.5271505416604, "event": "response"}, {"time": 1325.8631336666876, "event": "done"}]}, {"trial": {"cue_direction": "right", "stimulus": "A|A", "correct_response": "f", "left_cue_condition": 0.5, "stimA_condition": 0.9, "response": "f", "performance": "Correct", "rt": 2.9351809583604336}, "events": [{"time": 1325.8763857916929, "event": "initialize", "status": "ok"}, {"time": 1325.8764936666703, "event": "start recording"}, {"time": 1326.113585791667, "event": "start"}, {"time": 1326.1203062500572, "event": "show fixation"}, {"time": 1326.6259585000807, "event": "show cue"}, {"time": 1328.131325083319, "event": "show fixation"}, {"time": 1328.639464625041, "event": "start sound"}, {"time": 1328.6396753750741, "event": "start decision window"}, {"time": 1329.9914100416936, "event": "response"}, {"time": 1331.574858583277, "event": "done"}]}, {"trial": {"cue_direction": "right", "stimulus": "A|A", "correct_response": "f", "left_cue_condition": 0.5, "stimA_condition": 0.9, "response": "f", "performance": "Correct", "rt": 2.871531500015408}, "events": [{"time": 1331.5881596666295, "event": "initialize", "status": "ok"}, {"time": 1331.588251958252, "event": "start recording"}, {"time": 1331.8248667500447, "event": "start"}, {"time": 1331.8320647500223, "event": "show fixation"}, {"time": 1332.3368958332576, "event": "show cue"}, {"time": 1333.8419019166613, "event": "show fixation"}, {"time": 1334.3498897083336, "event": "start sound"}, {"time": 1334.350138583337, "event": "start decision window"}, {"time": 1334.8875880832784, "event": "response"}, {"time": 1337.221672500018, "event": "done"}]}, {"trial": {"cue_direction": "left", "stimulus": "A|A", "correct_response": "f", "left_cue_condition": 0.5, "stimA_condition": 0.9, "response": "f", "performance": "Correct", "rt": 2.710450458340347}, "events": [{"time": 1337.2354405000806, "event": "initialize", "status": "ok"}, {"time": 1337.2355449582683, "event": "start recording"}, {"time": 1337.4690593749983, "event": "start"}, {"time": 1337.4754807500867, "event": "show fixation"}, {"time": 1337.9805943750544, "event": "show cue"}, {"time": 1339.4853947917, "event": "show fixation"}, {"time": 1339.9950305416714, "event": "start sound"}, {"time": 1339.9952477082843, "event": "start decision window"}, {"time": 1340.5835142916767, "event": "response"}, {"time": 1342.7057003750233, "event": "done"}]}, {"trial": {"cue_direction": "right", "stimulus": "A|A", "correct_response": "f", "left_cue_condition": 0.5, "stimA_condition": 0.9, "response": "f", "performance": "Correct", "rt": 2.4244870832189918}, "events": [{"time": 1342.7191753750667, "event": "initialize", "status": "ok"}, {"time": 1342.7192745000357, "event": "start recording"}, {"time": 1342.957297708257, "event": "start"}, {"time": 1342.9647505832836, "event": "show fixation"}, {"time": 1343.4700762917055, "event": "show cue"}, {"time": 1344.9747689166106, "event": "show fixation"}, {"time": 1345.482493541669, "event": "start sound"}, {"time": 1345.4828009583289, "event": "start decision window"}, {"time": 1345.9115526250098, "event": "response"}, {"time": 1347.9072482916526, "event": "done"}]}, {"trial": {"cue_direction": "left", "stimulus": "A|B", "correct_response": "f", "left_cue_condition": 0.5, "stimA_condition": 0.9, "response": "f", "performance": "Correct", "rt": 3.2904327918076888}, "events": [{"time": 1347.9212583750486, "event": "initialize", "status": "ok"}, {"time": 1347.9213569166604, "event": "start recording"}, {"time": 1348.1570847916882, "event": "start"}, {"time": 1348.163783833268, "event": "show fixation"}, {"time": 1348.669518083334, "event": "show cue"}, {"time": 1350.1737391666975, "event": "show fixation"}, {"time": 1350.6812513750046, "event": "start sound"}, {"time": 1350.681461625034, "event": "start decision window"}, {"time": 1351.7996562916087, "event": "response"}, {"time": 1353.971898333286, "event": "done"}]}, {"trial": {"cue_direction": "right", "stimulus": "A|A", "correct_response": "f", "left_cue_condition": 0.5, "stimA_condition": 0.9, "response": "f", "performance": "Correct", "rt": 2.122420416562818}, "events": [{"time": 1353.9857015416492, "event": "initialize", "status": "ok"}, {"time": 1353.9858065000735, "event": "start recording"}, {"time": 1354.2248900000704, "event": "start"}, {"time": 1354.232426750008, "event": "show fixation"}, {"time": 1354.7376545000589, "event": "show cue"}, {"time": 1356.2421047500102, "event": "show fixation"}, {"time": 1356.7498798749875, "event": "start sound"}, {"time": 1356.7501160000684, "event": "start decision window"}, {"time": 1357.3677204583073, "event": "response"}, {"time": 1358.8725385832367, "event": "done"}]}, {"trial": {"cue_direction": "left", "stimulus": "A|A", "correct_response": "f", "left_cue_condition": 0.5, "stimA_condition": 0.9, "response": "f", "performance": "Correct", "rt": 2.9660427500493824}, "events": [{"time": 1358.8859917500522, "event": "initialize", "status": "ok"}, {"time": 1358.8861030000262, "event": "start recording"}, {"time": 1359.1229000416351, "event": "start"}, {"time": 1359.1302544166101, "event": "show fixation"}, {"time": 1359.6356107916217, "event": "show cue"}, {"time": 1361.1396950000199, "event": "show fixation"}, {"time": 1361.6477155833272, "event": "start sound"}, {"time": 1361.6479490416823, "event": "start decision window"}, {"time": 1362.5195814582985, "event": "response"}, {"time": 1364.6139945416944, "event": "done"}]}, {"trial": {"cue_direction": "left", "stimulus": "B|A", "correct_response": "j", "left_cue_condition": 0.5, "stimA_condition": 0.9, "response": "j", "performance": "Correct", "rt": 2.8798846666468307}, "events": [{"time": 1364.627448791638, "event": "initialize", "status": "ok"}, {"time": 1364.6275396666024, "event": "start recording"}, {"time": 1364.8612618332263, "event": "start"}, {"time": 1364.8638125417056, "event": "show fixation"}, {"time": 1365.3682447916362, "event": "show cue"}, {"time": 1366.8750864166068, "event": "show fixation"}, {"time": 1367.3830414583208, "event": "start sound"}, {"time": 1367.3832602082985, "event": "start decision window"}, {"time": 1368.327757458319, "event": "response"}, {"time": 1370.2631471250206, "event": "done"}]}, {"trial": {"cue_direction": "left", "stimulus": "A|A", "correct_response": "f", "left_cue_condition": 0.5, "stimA_condition": 0.9, "response": "f", "performance": "Correct", "rt": 2.6974855000153184}, "events": [{"time": 1370.2770327500766, "event": "initialize", "status": "ok"}, {"time": 1370.2771148332395, "event": "start recording"}, {"time": 1370.5064507500501, "event": "start"}, {"time": 1370.51355074998, "event": "show fixation"}, {"time": 1371.017915791599, "event": "show cue"}, {"time": 1372.5249562083045, "event": "show fixation"}, {"time": 1373.0332167916931, "event": "start sound"}, {"time": 1373.0334488750668, "event": "start decision window"}, {"time": 1373.6557632916374, "event": "response"}, {"time": 1375.7309371666051, "event": "done"}]}, {"trial": {"cue_direction": "right", "stimulus": "A|A", "correct_response": "f", "left_cue_condition": 0.5, "stimA_condition": 0.9, "response": "f", "performance": "Correct", "rt": 2.646258541732095}, "events": [{"time": 1375.7441775000188, "event": "initialize", "status": "ok"}, {"time": 1375.7442867499776, "event": "start recording"}, {"time": 1375.9542624166934, "event": "start"}, {"time": 1375.959565416677, "event": "show fixation"}, {"time": 1376.4642644582782, "event": "show cue"}, {"time": 1377.969692624989, "event": "show fixation"}, {"time": 1378.4800826250575, "event": "start sound"}, {"time": 1378.4803184582852, "event": "start decision window"}, {"time": 1379.4957376666134, "event": "response"}, {"time": 1381.1265787499724, "event": "done"}]}, {"trial": {"cue_direction": "right", "stimulus": "A|B", "correct_response": "j", "left_cue_condition": 0.5, "stimA_condition": 0.9, "response": "j", "performance": "Correct", "rt": 3.4573962084250525}, "events": [{"time": 1381.139955166611, "event": "initialize", "status": "ok"}, {"time": 1381.1400578750763, "event": "start recording"}, {"time": 1381.3774769166484, "event": "start"}, {"time": 1381.3844536666293, "event": "show fixation"}, {"time": 1381.8901980000082, "event": "show cue"}, {"time": 1383.3952137500746, "event": "show fixation"}, {"time": 1383.9042101666564, "event": "start sound"}, {"time": 1383.9044385000598, "event": "start decision window"}, {"time": 1385.4159396250034, "event": "response"}, {"time": 1387.361837083241, "event": "done"}]}, {"trial": {"cue_direction": "left", "stimulus": "A|A", "correct_response": "f", "left_cue_condition": 0.5, "stimA_condition": 0.9, "response": "f", "performance": "Correct", "rt": 3.330714916693978}, "events": [{"time": 1387.3755090417108, "event": "initialize", "status": "ok"}, {"time": 1387.3756188750267, "event": "start recording"}, {"time": 1387.6111114165979, "event": "start"}, {"time": 1387.6183783332817, "event": "show fixation"}, {"time": 1388.123754958273, "event": "show cue"}, {"time": 1389.6291569583118, "event": "show fixation"}, {"time": 1390.1379351665964, "event": "start sound"}, {"time": 1390.138163958327, "event": "start decision window"}, {"time": 1391.4829627916915, "event": "response"}, {"time": 1393.4688816249836, "event": "done"}]}, {"trial": {"cue_direction": "right", "stimulus": "A|B", "correct_response": "j", "left_cue_condition": 0.5, "stimA_condition": 0.9, "response": "j", "performance": "Correct", "rt": 3.253814083407633}, "events": [{"time": 1393.4831217082683, "event": "initialize", "status": "ok"}, {"time": 1393.4832116250182, "event": "start recording"}, {"time": 1393.7222857916495, "event": "start"}, {"time": 1393.729184249998, "event": "show fixation"}, {"time": 1394.2349301250651, "event": "show cue"}, {"time": 1395.7396689582383, "event": "show fixation"}, {"time": 1396.2471085832221, "event": "start sound"}, {"time": 1396.2473509166157, "event": "start decision window"}, {"time": 1397.1280957499985, "event": "response"}, {"time": 1399.501166083268, "event": "done"}]}, {"trial": {"cue_direction": "left", "stimulus": "A|A", "correct_response": "f", "left_cue_condition": 0.5, "stimA_condition": 0.9, "response": "f", "performance": "Correct", "rt": 2.8519491667393595}, "events": [{"time": 1399.515040291706, "event": "initialize", "status": "ok"}, {"time": 1399.515146416612, "event": "start recording"}, {"time": 1399.7531061250484, "event": "start"}, {"time": 1399.7591389166191, "event": "show fixation"}, {"time": 1400.265329875052, "event": "show cue"}, {"time": 1401.7705011666985, "event": "show fixation"}, {"time": 1402.2793301250786, "event": "start sound"}, {"time": 1402.2795547082787, "event": "start decision window"}, {"time": 1403.4159291666, "event": "response"}, {"time": 1405.1315060000634, "event": "done"}]}, {"trial": {"cue_direction": "right", "stimulus": "A|A", "correct_response": "f", "left_cue_condition": 0.5, "stimA_condition": 0.9, "response": "f", "performance": "Correct", "rt": 3.2952131666243076}, "events": [{"time": 1405.1531526250765, "event": "initialize", "status": "ok"}, {"time": 1405.1533341666218, "event": "start recording"}, {"time": 1405.380712083308, "event": "start"}, {"time": 1405.3876212916803, "event": "show fixation"}, {"time": 1405.8932467916748, "event": "show cue"}, {"time": 1407.398287833319, "event": "show fixation"}, {"time": 1407.9063969582785, "event": "start sound"}, {"time": 1407.9066268750466, "event": "start decision window"}, {"time": 1408.9522262500832, "event": "response"}, {"time": 1411.2018421665998, "event": "done"}]}, {"trial": {"cue_direction": "left", "stimulus": "A|A", "correct_response": "f", "left_cue_condition": 0.5, "stimA_condition": 0.9, "response": "f", "performance": "Correct", "rt": 3.1822017499944195}, "events": [{"time": 1411.2157862082822, "event": "initialize", "status": "ok"}, {"time": 1411.2159039999824, "event": "start recording"}, {"time": 1411.462551250006, "event": "start"}, {"time": 1411.4676952500595, "event": "show fixation"}, {"time": 1411.9730914999964, "event": "show cue"}, {"time": 1413.4774705416057, "event": "show fixation"}, {"time": 1413.987183958292, "event": "start sound"}, {"time": 1413.9874476667028, "event": "start decision window"}, {"time": 1414.9043839583173, "event": "response"}, {"time": 1417.169652708224, "event": "done"}]}, {"trial": {"cue_direction": "left", "stimulus": "A|A", "correct_response": "f", "left_cue_condition": 0.5, "stimA_condition": 0.9, "response": "f", "performance": "Correct", "rt": 2.700334916706197}, "events": [{"time": 1417.183242875035, "event": "initialize", "status": "ok"}, {"time": 1417.1833433333086, "event": "start recording"}, {"time": 1417.4198542915983, "event": "start"}, {"time": 1417.4262898750603, "event": "show fixation"}, {"time": 1417.9314948333194, "event": "show cue"}, {"time": 1419.4365304582752, "event": "show fixation"}, {"time": 1419.9453322916524, "event": "start sound"}, {"time": 1419.9455476250732, "event": "start decision window"}, {"time": 1420.600324208266, "event": "response"}, {"time": 1422.6458847500617, "event": "done"}]}, {"trial": {"cue_direction": "left", "stimulus": "A|A", "correct_response": "f", "left_cue_condition": 0.5, "stimA_condition": 0.9, "response": null, "performance": null, "rt": null}, "events": [{"time": 1422.6599388750037, "event": "initialize", "status": "ok"}, {"time": 1422.6600337916752, "event": "start recording"}, {"time": 1422.8684150000336, "event": "start"}, {"time": 1422.8732076250017, "event": "show fixation"}, {"time": 1423.3777277083136, "event": "show cue"}, {"time": 1424.8838538333075, "event": "show fixation"}, {"time": 1425.3916326250182, "event": "start sound"}, {"time": 1425.3918622500496, "event": "start decision window"}, {"time": 1430.2978713749908, "event": "response"}, {"time": 1430.2980716666207, "event": "done"}]}, {"trial": {"cue_direction": "right", "stimulus": "A|A", "correct_response": "f", "left_cue_condition": 0.5, "stimA_condition": 0.9, "response": "f", "performance": "Correct", "rt": 3.2998391665751114}, "events": [{"time": 1430.311699041631, "event": "initialize", "status": "ok"}, {"time": 1430.3117893750314, "event": "start recording"}, {"time": 1430.51908537501, "event": "start"}, {"time": 1430.5245822082506, "event": "show fixation"}, {"time": 1431.0298111250158, "event": "show cue"}, {"time": 1432.5350573749747, "event": "show fixation"}, {"time": 1433.0428418333177, "event": "start sound"}, {"time": 1433.0430643332656, "event": "start decision window"}, {"time": 1433.8965077917092, "event": "response"}, {"time": 1436.3429053750588, "event": "done"}]}, {"trial": {"cue_direction": "right", "stimulus": "A|A", "correct_response": "f", "left_cue_condition": 0.5, "stimA_condition": 0.9, "response": "f", "performance": "Correct", "rt": 2.977142541552894}, "events": [{"time": 1436.3740639582975, "event": "initialize", "status": "ok"}, {"time": 1436.3741944582434, "event": "start recording"}, {"time": 1436.5912040832918, "event": "start"}, {"time": 1436.5949388332665, "event": "show fixation"}, {"time": 1437.099324416602, "event": "show cue"}, {"time": 1438.6048112083226, "event": "show fixation"}, {"time": 1439.1123287916416, "event": "start sound"}, {"time": 1439.1126403332455, "event": "start decision window"}, {"time": 1440.504364500055, "event": "response"}, {"time": 1442.0897850833135, "event": "done"}]}, {"trial": {"cue_direction": "right", "stimulus": "A|A", "correct_response": "f", "left_cue_condition": 0.5, "stimA_condition": 0.9, "response": "f", "performance": "Correct", "rt": 2.863758833380416}, "events": [{"time": 1442.103569708299, "event": "initialize", "status": "ok"}, {"time": 1442.1036623750115, "event": "start recording"}, {"time": 1442.3438023750205, "event": "start"}, {"time": 1442.3501764166867, "event": "show fixation"}, {"time": 1442.8557117499877, "event": "show cue"}, {"time": 1444.3597982500214, "event": "show fixation"}, {"time": 1444.8677423333284, "event": "start sound"}, {"time": 1444.8679734582547, "event": "start decision window"}, {"time": 1445.4647223750362, "event": "response"}, {"time": 1447.7317352083046, "event": "done"}]}, {"trial": {"cue_direction": "left", "stimulus": "A|A", "correct_response": "f", "left_cue_condition": 0.5, "stimA_condition": 0.9, "response": "f", "performance": "Correct", "rt": 4.583604499930516}, "events": [{"time": 1447.756285958225, "event": "initialize", "status": "ok"}, {"time": 1447.7564082082827, "event": "start recording"}, {"time": 1447.9830493333284, "event": "start"}, {"time": 1447.9897318750154, "event": "show fixation"}, {"time": 1448.495080541703, "event": "show cue"}, {"time": 1450.000313125085, "event": "show fixation"}, {"time": 1450.5082777083153, "event": "start sound"}, {"time": 1450.508531874977, "event": "start decision window"}, {"time": 1452.8404725833097, "event": "response"}, {"time": 1455.0921386666596, "event": "done"}]}, {"trial": {"cue_direction": "right", "stimulus": "A|A", "correct_response": "f", "left_cue_condition": 0.5, "stimA_condition": 0.9, "response": "f", "performance": "Correct", "rt": 4.196881500072777}, "events": [{"time": 1455.1055086250417, "event": "initialize", "status": "ok"}, {"time": 1455.1055986667052, "event": "start recording"}, {"time": 1455.3427131666103, "event": "start"}, {"time": 1455.349198541604, "event": "show fixation"}, {"time": 1455.8546974583296, "event": "show cue"}, {"time": 1457.3595342083136, "event": "show fixation"}, {"time": 1457.867314000032, "event": "start sound"}, {"time": 1457.8675397916231, "event": "start decision window"}, {"time": 1459.7206828332273, "event": "response"}, {"time": 1462.0644247500459, "event": "done"}]}, {"trial": {"cue_direction": "left", "stimulus": "A|A", "correct_response": "f", "left_cue_condition": 0.3, "stimA_condition": 0.9, "response": "j", "performance": "Incorrect", "rt": 4.352909708279185}, "events": [{"time": 1654.6210402082652, "event": "initialize", "status": "ok"}, {"time": 1654.621379374992, "event": "start recording"}, {"time": 1654.8316270000068, "event": "start"}, {"time": 1654.8362622916466, "event": "show fixation"}, {"time": 1655.3412902082782, "event": "show cue"}, {"time": 1656.8463176666992, "event": "show fixation"}, {"time": 1657.3570227916352, "event": "start sound"}, {"time": 1657.357347625075, "event": "start decision window"}, {"time": 1660.0074337082915, "event": "response"}, {"time": 1661.7102580000646, "event": "done"}]}, {"trial": {"cue_direction": "right", "stimulus": "A|A", "correct_response": "f", "left_cue_condition": 0.3, "stimA_condition": 0.9, "response": "f", "performance": "Correct", "rt": 3.648357458296232}, "events": [{"time": 1661.7241263750475, "event": "initialize", "status": "ok"}, {"time": 1661.7242243749788, "event": "start recording"}, {"time": 1661.9714750832645, "event": "start"}, {"time": 1661.978600458242, "event": "show fixation"}, {"time": 1662.484439166612, "event": "show cue"}, {"time": 1663.9894288750365, "event": "show fixation"}, {"time": 1664.4976365416078, "event": "start sound"}, {"time": 1664.4978623333154, "event": "start decision window"}, {"time": 1665.913480999996, "event": "response"}, {"time": 1668.1462221666006, "event": "done"}]}, {"trial": {"cue_direction": "left", "stimulus": "B|A", "correct_response": "j", "left_cue_condition": 0.3, "stimA_condition": 0.9, "response": "j", "performance": "Correct", "rt": 3.157624708255753}, "events": [{"time": 1668.1600190416211, "event": "initialize", "status": "ok"}, {"time": 1668.1601082499838, "event": "start recording"}, {"time": 1668.3974048750242, "event": "start"}, {"time": 1668.4038080832688, "event": "show fixation"}, {"time": 1668.909102708334, "event": "show cue"}, {"time": 1670.4145789999748, "event": "show fixation"}, {"time": 1670.922481458285, "event": "start sound"}, {"time": 1670.9227022082778, "event": "start decision window"}, {"time": 1672.103431083262, "event": "response"}, {"time": 1674.0803290000185, "event": "done"}]}, {"trial": {"cue_direction": "right", "stimulus": "B|A", "correct_response": "f", "left_cue_condition": 0.3, "stimA_condition": 0.9, "response": "f", "performance": "Correct", "rt": 3.345412875059992}, "events": [{"time": 1674.0941504166694, "event": "initialize", "status": "ok"}, {"time": 1674.0942377082538, "event": "start recording"}, {"time": 1674.3296583750052, "event": "start"}, {"time": 1674.3364439166617, "event": "show fixation"}, {"time": 1674.841562375077, "event": "show cue"}, {"time": 1676.3468397916295, "event": "show fixation"}, {"time": 1676.8553237916203, "event": "start sound"}, {"time": 1676.8555959583027, "event": "start decision window"}, {"time": 1678.2473745832685, "event": "response"}, {"time": 1680.2010119582992, "event": "done"}]}, {"trial": {"cue_direction": "right", "stimulus": "A|B", "correct_response": "j", "left_cue_condition": 0.3, "stimA_condition": 0.9, "response": "j", "performance": "Correct", "rt": 3.957686875015497}, "events": [{"time": 1680.2145389167126, "event": "initialize", "status": "ok"}, {"time": 1680.214642249979, "event": "start recording"}, {"time": 1680.4512606250355, "event": "start"}, {"time": 1680.4585491666803, "event": "show fixation"}, {"time": 1680.9646614165977, "event": "show cue"}, {"time": 1682.470216208254, "event": "show fixation"}, {"time": 1682.981950541609, "event": "start sound"}, {"time": 1682.9821838332573, "event": "start decision window"}, {"time": 1684.7913622916676, "event": "response"}, {"time": 1686.9398727916414, "event": "done"}]}, {"trial": {"cue_direction": "right", "stimulus": "A|A", "correct_response": "f", "left_cue_condition": 0.3, "stimA_condition": 0.9, "response": "f", "performance": "Correct", "rt": 2.7659562500193715}, "events": [{"time": 1686.9537148750387, "event": "initialize", "status": "ok"}, {"time": 1686.9538098332705, "event": "start recording"}, {"time": 1687.1927351666382, "event": "start"}, {"time": 1687.1991168332752, "event": "show fixation"}, {"time": 1687.704886874999, "event": "show cue"}, {"time": 1689.2103553332854, "event": "show fixation"}, {"time": 1689.718752458226, "event": "start sound"}, {"time": 1689.7189786250237, "event": "start decision window"}, {"time": 1690.7913128749933, "event": "response"}, {"time": 1692.4849369582953, "event": "done"}]}, {"trial": {"cue_direction": "left", "stimulus": "A|B", "correct_response": "f", "left_cue_condition": 0.3, "stimA_condition": 0.9, "response": "f", "performance": "Correct", "rt": 3.24191254156176}, "events": [{"time": 1692.4985441250028, "event": "initialize", "status": "ok"}, {"time": 1692.4986468750285, "event": "start recording"}, {"time": 1692.7270626666723, "event": "start"}, {"time": 1692.7328907082556, "event": "show fixation"}, {"time": 1693.2381031250115, "event": "show cue"}, {"time": 1694.7437412916915, "event": "show fixation"}, {"time": 1695.2513612500625, "event": "start sound"}, {"time": 1695.2515938333236, "event": "start decision window"}, {"time": 1696.8873509166297, "event": "response"}, {"time": 1698.493508375017, "event": "done"}]}, {"trial": {"cue_direction": "right", "stimulus": "A|A", "correct_response": "f", "left_cue_condition": 0.3, "stimA_condition": 0.9, "response": "f", "performance": "Correct", "rt": 3.231407625018619}, "events": [{"time": 1698.5070746666752, "event": "initialize", "status": "ok"}, {"time": 1698.5071906666271, "event": "start recording"}, {"time": 1698.7472677082988, "event": "start"}, {"time": 1698.7544143332634, "event": "show fixation"}, {"time": 1699.2600176666165, "event": "show cue"}, {"time": 1700.7651746249758, "event": "show fixation"}, {"time": 1701.273299750057, "event": "start sound"}, {"time": 1701.2735073750373, "event": "start decision window"}, {"time": 1702.4073053749744, "event": "response"}, {"time": 1704.5049182500225, "event": "done"}]}, {"trial": {"cue_direction": "right", "stimulus": "A|B", "correct_response": "j", "left_cue_condition": 0.3, "stimA_condition": 0.9, "response": "j", "performance": "Correct", "rt": 3.434717958327383}, "events": [{"time": 1704.5185073332395, "event": "initialize", "status": "ok"}, {"time": 1704.5185982916737, "event": "start recording"}, {"time": 1704.7533714167075, "event": "start"}, {"time": 1704.7602260833373, "event": "show fixation"}, {"time": 1705.2646033333149, "event": "show cue"}, {"time": 1706.7697884166846, "event": "show fixation"}, {"time": 1707.2774327916559, "event": "start sound"}, {"time": 1707.2776510000695, "event": "start decision window"}, {"time": 1708.6313487916486, "event": "response"}, {"time": 1710.712372458307, "event": "done"}]}, {"trial": {"cue_direction": "left", "stimulus": "A|A", "correct_response": "f", "left_cue_condition": 0.3, "stimA_condition": 0.9, "response": "f", "performance": "Correct", "rt": 3.2421084584202617}, "events": [{"time": 1710.726116958307, "event": "initialize", "status": "ok"}, {"time": 1710.72620620823, "event": "start recording"}, {"time": 1710.9623663750244, "event": "start"}, {"time": 1710.9698952082545, "event": "show fixation"}, {"time": 1711.4755705832504, "event": "show cue"}, {"time": 1712.990871499991, "event": "show fixation"}, {"time": 1713.5114000833128, "event": "start sound"}, {"time": 1713.5116511665983, "event": "start decision window"}, {"time": 1714.5353446250083, "event": "response"}, {"time": 1716.753760583233, "event": "done"}]}, {"trial": {"cue_direction": "right", "stimulus": "A|A", "correct_response": "f", "left_cue_condition": 0.3, "stimA_condition": 0.9, "response": "f", "performance": "Correct", "rt": 3.4957097499864176}, "events": [{"time": 1716.7674195832806, "event": "initialize", "status": "ok"}, {"time": 1716.7675145833055, "event": "start recording"}, {"time": 1716.9947775000473, "event": "start"}, {"time": 1717.0015800416004, "event": "show fixation"}, {"time": 1717.5058432916412, "event": "show cue"}, {"time": 1719.009942375007, "event": "show fixation"}, {"time": 1719.517976916628, "event": "start sound"}, {"time": 1719.51819004165, "event": "start decision window"}, {"time": 1720.647082875017, "event": "response"}, {"time": 1723.0139