{"config_number": 0, "parameters": {"points_per_cent": 2, "time_limit": 5, "correct_responses": ["f", "j"], "combination_num": 8, "gaze_tolerance": 1.5, "triggers": "<triggers.Triggers object at 0x000002BC181D4160>"}, "main_data": [{"trial": {"cue_direction": "left", "stimulus": "A|B", "correct_response": "f", "left_cue_condition": 0.5, "stimA_condition": 0.5, "response": "f", "performance": "Correct", "rt": 2.4947381999809295}, "events": [{"time": 65.39302819990553, "event": "initialize", "status": "ok"}, {"time": 65.3934732999187, "event": "start recording"}, {"time": 65.50736189982854, "event": "start"}, {"time": 65.52173129981384, "event": "show fixation"}, {"time": 66.03718209988438, "event": "show cue"}, {"time": 67.54784389981069, "event": "show fixation"}, {"time": 68.26359190000221, "event": "start sound"}, {"time": 68.26417419989593, "event": "start decision window"}, {"time": 69.12472700001672, "event": "response"}, {"time": 70.75891839992255, "event": "done"}]}, {"trial": {"cue_direction": "left", "stimulus": "B|B", "correct_response": "j", "left_cue_condition": 0.5, "stimA_condition": 0.5, "response": "j", "performance": "Correct", "rt": 2.85976679995656}, "events": [{"time": 70.77509270003065, "event": "initialize", "status": "ok"}, {"time": 70.77524949982762, "event": "start recording"}, {"time": 70.89914270001464, "event": "start"}, {"time": 70.90193889988586, "event": "show fixation"}, {"time": 71.4099279998336, "event": "show cue"}, {"time": 72.92737169982865, "event": "show fixation"}, {"time": 73.45016879984178, "event": "start sound"}, {"time": 73.4508829000406, "event": "start decision window"}, {"time": 74.0846396998968, "event": "response"}, {"time": 76.31067599984817, "event": "done"}]}, {"trial": {"cue_direction": "right", "stimulus": "B|A", "correct_response": "f", "left_cue_condition": 0.5, "stimA_condition": 0.5, "response": "f", "performance": "Correct", "rt": 2.730729600181803}, "events": [{"time": 76.33833679999225, "event": "initialize", "status": "ok"}, {"time": 76.33850379986688, "event": "start recording"}, {"time": 76.44830729998648, "event": "start"}, {"time": 76.45145139982924, "event": "show fixation"}, {"time": 76.96010779985227, "event": "show cue"}, {"time": 78.47499309992418, "event": "show fixation"}, {"time": 79.00892079994082, "event": "start sound"}, {"time": 79.00960300001316, "event": "start decision window"}, {"time": 79.75671270000748, "event": "response"}, {"time": 81.7403539000079, "event": "done"}]}, {"trial": {"cue_direction": "left", "stimulus": "A|A", "correct_response": "f", "left_cue_condition": 0.5, "stimA_condition": 0.5, "response": "j", "performance": "Incorrect", "rt": 2.493977699894458}, "events": [{"time": 81.75319979991764, "event": "initialize", "status": "ok"}, {"time": 81.753357199952, "event": "start recording"}, {"time": 81.86335939983837, "event": "start"}, {"time": 81.86658289982006, "event": "show fixation"}, {"time": 82.37372639984824, "event": "show cue"}, {"time": 83.89025209983811, "event": "show fixation"}, {"time": 84.41403119987808, "event": "start sound"}, {"time": 84.41460519982502, "event": "start decision window"}, {"time": 85.1486878998112, "event": "response"}, {"time": 86.90859099989757, "event": "done"}]}, {"trial": {"cue_direction": "left", "stimulus": "A|A", "correct_response": "f", "left_cue_condition": 0.5, "stimA_condition": 0.5, "response": "f", "performance": "Correct", "rt": 2.244778099935502}, "events": [{"time": 86.91842569992878, "event": "initialize", "status": "ok"}, {"time": 86.91858979989775, "event": "start recording"}, {"time": 87.05102409981191, "event": "start"}, {"time": 87.05383899994195, "event": "show fixation"}, {"time": 87.56147870002314, "event": "show cue"}, {"time": 89.07053699996322, "event": "show fixation"}, {"time": 89.59550999989733, "event": "start sound"}, {"time": 89.59608249994926, "event": "start decision window"}, {"time": 90.06865379982628, "event": "response"}, {"time": 91.8408754998818, "event": "done"}]}, {"trial": {"cue_direction": "right", "stimulus": "B|B", "correct_response": "j", "left_cue_condition": 0.5, "stimA_condition": 0.5, "response": "j", "performance": "Correct", "rt": 2.568344200029969}, "events": [{"time": 91.8669654999394, "event": "initialize", "status": "ok"}, {"time": 91.86722199991345, "event": "start recording"}, {"time": 91.98288639984094, "event": "start"}, {"time": 91.98578749992885, "event": "show fixation"}, {"time": 92.49338099989109, "event": "show cue"}, {"time": 94.00562409986742, "event": "show fixation"}, {"time": 94.53248029993847, "event": "start sound"}, {"time": 94.533152599819, "event": "start decision window"}, {"time": 95.26057579996996, "event": "response"}, {"time": 97.10151729988866, "event": "done"}]}, {"trial": {"cue_direction": "right", "stimulus": "A|A", "correct_response": "f", "left_cue_condition": 0.5, "stimA_condition": 0.5, "response": "f", "performance": "Correct", "rt": 2.0660926001146436}, "events": [{"time": 97.11789370002225, "event": "initialize", "status": "ok"}, {"time": 97.11843060003594, "event": "start recording"}, {"time": 97.2433726999443, "event": "start"}, {"time": 97.25026779994369, "event": "show fixation"}, {"time": 97.76219799998216, "event": "show cue"}, {"time": 99.2901141999755, "event": "show fixation"}, {"time": 99.81453009997495, "event": "start sound"}, {"time": 99.81512619997375, "event": "start decision window"}, {"time": 100.3325940000359, "event": "response"}, {"time": 101.88125119986944, "event": "done"}]}, {"trial": {"cue_direction": "right", "stimulus": "A|A", "correct_response": "f", "left_cue_condition": 0.5, "stimA_condition": 0.5, "response": "f", "performance": "Correct", "rt": 2.3714594000484794}, "events": [{"time": 101.90094329998828, "event": "initialize", "status": "ok"}, {"time": 101.90131919994019, "event": "start recording"}, {"time": 102.01233919989318, "event": "start"}, {"time": 102.02410000003874, "event": "show fixation"}, {"time": 102.53631759993732, "event": "show cue"}, {"time": 104.05132630001754, "event": "show fixation"}, {"time": 104.5874534000177, "event": "start sound"}, {"time": 104.58826270001009, "event": "start decision window"}, {"time": 105.02858279994689, "event": "response"}, {"time": 106.95973040000536, "event": "done"}]}, {"trial": {"cue_direction": "right", "stimulus": "A|A", "correct_response": "f", "left_cue_condition": 0.5, "stimA_condition": 0.5, "response": "f", "performance": "Correct", "rt": 1.9997972999699414}, "events": [{"time": 106.97940279985778, "event": "initialize", "status": "ok"}, {"time": 106.97963709989563, "event": "start recording"}, {"time": 107.10234039998613, "event": "start"}, {"time": 107.11426909989677, "event": "show fixation"}, {"time": 107.62564199999906, "event": "show cue"}, {"time": 109.15007720002905, "event": "show fixation"}, {"time": 109.6784010999836, "event": "start sound"}, {"time": 109.67906789993867, "event": "start decision window"}, {"time": 110.15661499998532, "event": "response"}, {"time": 111.67887929989956, "event": "done"}]}, {"trial": {"cue_direction": "right", "stimulus": "B|B", "correct_response": "j", "left_cue_condition": 0.5, "stimA_condition": 0.5, "response": "j", "performance": "Correct", "rt": 1.884386399993673}, "events": [{"time": 111.6945877999533, "event": "initialize", "status": "ok"}, {"time": 111.69487309991382, "event": "start recording"}, {"time": 111.81790939997882, "event": "start"}, {"time": 111.82883229991421, "event": "show fixation"}, {"time": 112.34076749999076, "event": "show cue"}, {"time": 113.8679211998824, "event": "show fixation"}, {"time": 114.39722549985163, "event": "start sound"}, {"time": 114.39810419990681, "event": "start decision window"}, {"time": 114.72460819990374, "event": "response"}, {"time": 116.282505299896, "event": "done"}]}, {"trial": {"cue_direction": "right", "stimulus": "B|B", "correct_response": "j", "left_cue_condition": 0.5, "stimA_condition": 0.5, "response": "j", "performance": "Correct", "rt": 2.242280300008133}, "events": [{"time": 116.29575379984453, "event": "initialize", "status": "ok"}, {"time": 116.29609850002453, "event": "start recording"}, {"time": 116.42191459983587, "event": "start"}, {"time": 116.43113199993968, "event": "show fixation"}, {"time": 116.94046840001829, "event": "show cue"}, {"time": 118.4683470998425, "event": "show fixation"}, {"time": 118.99551159981638, "event": "start sound"}, {"time": 118.99637059983797, "event": "start decision window"}, {"time": 119.56464540003799, "event": "response"}, {"time": 121.23865620000288, "event": "done"}]}, {"trial": {"cue_direction": "left", "stimulus": "A|B", "correct_response": "f", "left_cue_condition": 0.5, "stimA_condition": 0.5, "response": "f", "performance": "Correct", "rt": 2.497024399926886}, "events": [{"time": 121.25873230001889, "event": "initialize", "status": "ok"}, {"time": 121.2589157000184, "event": "start recording"}, {"time": 121.37021359987557, "event": "start"}, {"time": 121.38194109988399, "event": "show fixation"}, {"time": 121.89187339995988, "event": "show cue"}, {"time": 123.41433339985088, "event": "show fixation"}, {"time": 123.9408157998696, "event": "start sound"}, {"time": 123.94148509996012, "event": "start decision window"}, {"time": 124.3726500000339, "event": "response"}, {"time": 126.43852209998295, "event": "done"}]}, {"trial": {"cue_direction": "right", "stimulus": "B|B", "correct_response": "j", "left_cue_condition": 0.5, "stimA_condition": 0.5, "response": "j", "performance": "Correct", "rt": 1.9482811000198126}, "events": [{"time": 126.45797009998932, "event": "initialize", "status": "ok"}, {"time": 126.45825389982201, "event": "start recording"}, {"time": 126.57758729998022, "event": "start"}, {"time": 126.58906899997965, "event": "show fixation"}, {"time": 127.10214179987088, "event": "show cue"}, {"time": 128.62641369993798, "event": "show fixation"}, {"time": 129.16273740003817, "event": "start sound"}, {"time": 129.1636132998392, "event": "start decision window"}, {"time": 129.50063110003248, "event": "response"}, {"time": 131.11190949985757, "event": "done"}]}, {"trial": {"cue_direction": "left", "stimulus": "B|A", "correct_response": "j", "left_cue_condition": 0.5, "stimA_condition": 0.5, "response": "f", "performance": "Incorrect", "rt": 2.196049200138077}, "events": [{"time": 131.13916979986243, "event": "initialize", "status": "ok"}, {"time": 131.13964479998685, "event": "start recording"}, {"time": 131.25174939981662, "event": "start"}, {"time": 131.26161869987845, "event": "show fixation"}, {"time": 131.77714210003614, "event": "show cue"}, {"time": 133.2922995998524, "event": "show fixation"}, {"time": 133.82851399993524, "event": "start sound"}, {"time": 133.8294273999054, "event": "start decision window"}, {"time": 134.2046319998335, "event": "response"}, {"time": 136.02548209996894, "event": "done"}]}, {"trial": {"cue_direction": "right", "stimulus": "A|B", "correct_response": "j", "left_cue_condition": 0.5, "stimA_condition": 0.5, "response": "j", "performance": "Correct", "rt": 2.4116591999772936}, "events": [{"time": 136.03727299999446, "event": "initialize", "status": "ok"}, {"time": 136.03747330000624, "event": "start recording"}, {"time": 136.14842019998468, "event": "start"}, {"time": 136.15444549988024, "event": "show fixation"}, {"time": 136.662017500028, "event": "show cue"}, {"time": 138.17548440000974, "event": "show fixation"}, {"time": 138.69910910003819, "event": "start sound"}, {"time": 138.69977979990654, "event": "start decision window"}, {"time": 139.08489189995453, "event": "response"}, {"time": 141.11147210001945, "event": "done"}]}, {"trial": {"cue_direction": "left", "stimulus": "A|B", "correct_response": "f", "left_cue_condition": 0.5, "stimA_condition": 0.5, "response": "f", "performance": "Correct", "rt": 2.63354009995237}, "events": [{"time": 141.13798450003378, "event": "initialize", "status": "ok"}, {"time": 141.13865929981694, "event": "start recording"}, {"time": 141.253877799958, "event": "start"}, {"time": 141.2662308998406, "event": "show fixation"}, {"time": 141.77445339993574, "event": "show cue"}, {"time": 143.29320069984533, "event": "show fixation"}, {"time": 143.8120802999474, "event": "start sound"}, {"time": 143.81277960003354, "event": "start decision window"}, {"time": 144.29260999988765, "event": "response"}, {"time": 146.446345299948, "event": "done"}]}, {"trial": {"cue_direction": "right", "stimulus": "A|B", "correct_response": "j", "left_cue_condition": 0.5, "stimA_condition": 0.5, "response": "j", "performance": "Correct", "rt": 2.856451300205663}, "events": [{"time": 146.47079579997808, "event": "initialize", "status": "ok"}, {"time": 146.47127690003254, "event": "start recording"}, {"time": 146.58289489988238, "event": "start"}, {"time": 146.59388649999164, "event": "show fixation"}, {"time": 147.10439849994145, "event": "show cue"}, {"time": 148.62044029985555, "event": "show fixation"}, {"time": 149.15069059981033, "event": "start sound"}, {"time": 149.15131019987166, "event": "start decision window"}, {"time": 149.94058900000528, "event": "response"}, {"time": 152.0077733998187, "event": "done"}]}, {"trial": {"cue_direction": "right", "stimulus": "B|B", "correct_response": "j", "left_cue_condition": 0.5, "stimA_condition": 0.5, "response": "j", "performance": "Correct", "rt": 2.120219400152564}, "events": [{"time": 152.03001259989105, "event": "initialize", "status": "ok"}, {"time": 152.03018449991941, "event": "start recording"}, {"time": 152.1474788999185, "event": "start"}, {"time": 152.15967069985345, "event": "show fixation"}, {"time": 152.67397199990228, "event": "show cue"}, {"time": 154.1833595999051, "event": "show fixation"}, {"time": 154.7175141000189, "event": "start sound"}, {"time": 154.71809169999324, "event": "start decision window"}, {"time": 155.1805932999123, "event": "response"}, {"time": 156.8383218999952, "event": "done"}]}, {"trial": {"cue_direction": "right", "stimulus": "A|B", "correct_response": "j", "left_cue_condition": 0.5, "stimA_condition": 0.5, "response": "j", "performance": "Correct", "rt": 2.579805500106886}, "events": [{"time": 156.8624234998133, "event": "initialize", "status": "ok"}, {"time": 156.86264539998956, "event": "start recording"}, {"time": 156.9735793999862, "event": "start"}, {"time": 156.98516369983554, "event": "show fixation"}, {"time": 157.49269560002722, "event": "show cue"}, {"time": 159.01485509984195, "event": "show fixation"}, {"time": 159.54058779985644, "event": "start sound"}, {"time": 159.541455199942, "event": "start decision window"}, {"time": 160.0286369000096, "event": "response"}, {"time": 162.1212781998329, "event": "done"}]}, {"trial": {"cue_direction": "right", "stimulus": "B|B", "correct_response": "j", "left_cue_condition": 0.5, "stimA_condition": 0.5, "response": "j", "performance": "Correct", "rt": 2.8262451000045985}, "events": [{"time": 162.14545829989947, "event": "initialize", "status": "ok"}, {"time": 162.1458217999898, "event": "start recording"}, {"time": 162.26289989985526, "event": "start"}, {"time": 162.26586249982938, "event": "show fixation"}, {"time": 162.77685689995997, "event": "show cue"}, {"time": 164.30626480001956, "event": "show fixation"}, {"time": 164.84499330003746, "event": "start sound"}, {"time": 164.8457759998273, "event": "start decision window"}, {"time": 165.28454529982992, "event": "response"}, {"time": 167.6720555999782, "event": "done"}]}, {"trial": {"cue_direction": "left", "stimulus": "A|B", "correct_response": "f", "left_cue_condition": 0.5, "stimA_condition": 0.5, "response": "f", "performance": "Correct", "rt": 2.747842999873683}, "events": [{"time": 167.69291809992865, "event": "initialize", "status": "ok"}, {"time": 167.69310509995557, "event": "start recording"}, {"time": 167.80412649991922, "event": "start"}, {"time": 167.81629329989664, "event": "show fixation"}, {"time": 168.32779320003465, "event": "show cue"}, {"time": 169.84896099986508, "event": "show fixation"}, {"time": 170.37000339990482, "event": "start sound"}, {"time": 170.37072599981911, "event": "start decision window"}, {"time": 170.75655539985746, "event": "response"}, {"time": 173.1185757999774, "event": "done"}]}, {"trial": {"cue_direction": "left", "stimulus": "B|A", "correct_response": "j", "left_cue_condition": 0.5, "stimA_condition": 0.5, "response": "j", "performance": "Correct", "rt": 2.1777689000591636}, "events": [{"time": 173.14004749991, "event": "initialize", "status": "ok"}, {"time": 173.1402386999689, "event": "start recording"}, {"time": 173.25840199994855, "event": "start"}, {"time": 173.26980949984863, "event": "show fixation"}, {"time": 173.77950519998558, "event": "show cue"}, {"time": 175.29310549981892, "event": "show fixation"}, {"time": 175.82101269997656, "event": "start sound"}, {"time": 175.8217315999791, "event": "start decision window"}, {"time": 176.49260060000233, "event": "response"}, {"time": 177.99951460002922, "event": "done"}]}, {"trial": {"cue_direction": "left", "stimulus": "B|B", "correct_response": "j", "left_cue_condition": 0.5, "stimA_condition": 0.5, "response": "f", "performance": "Incorrect", "rt": 2.4168291999958456}, "events": [{"time": 178.0228485998232, "event": "initialize", "status": "ok"}, {"time": 178.02313099987805, "event": "start recording"}, {"time": 178.13389659998938, "event": "start"}, {"time": 178.14552759984508, "event": "show fixation"}, {"time": 178.65689540002495, "event": "show cue"}, {"time": 180.17531690001488, "event": "show fixation"}, {"time": 180.71369669982232, "event": "start sound"}, {"time": 180.71467409981415, "event": "start decision window"}, {"time": 181.10853059985675, "event": "response"}, {"time": 183.13150929985568, "event": "done"}]}, {"trial": {"cue_direction": "right", "stimulus": "A|A", "correct_response": "f", "left_cue_condition": 0.5, "stimA_condition": 0.5, "response": "f", "performance": "Correct", "rt": 2.5081405001692474}, "events": [{"time": 183.15346509986557, "event": "initialize", "status": "ok"}, {"time": 183.15370629983954, "event": "start recording"}, {"time": 183.26480480004102, "event": "start"}, {"time": 183.26950059994124, "event": "show fixation"}, {"time": 183.78190569998696, "event": "show cue"}, {"time": 185.2901565998327, "event": "show fixation"}, {"time": 185.82948799990118, "event": "start sound"}, {"time": 185.830420400016, "event": "start decision window"}, {"time": 186.6367265000008, "event": "response"}, {"time": 188.3385856000241, "event": "done"}]}, {"trial": {"cue_direction": "left", "stimulus": "A|A", "correct_response": "f", "left_cue_condition": 0.5, "stimA_condition": 0.5, "response": "f", "performance": "Correct", "rt": 3.176208100048825}, "events": [{"time": 188.3550391998142, "event": "initialize", "status": "ok"}, {"time": 188.35552009986714, "event": "start recording"}, {"time": 188.46723609999754, "event": "start"}, {"time": 188.47973919985816, "event": "show fixation"}, {"time": 188.98764780000784, "event": "show cue"}, {"time": 190.50748199992813, "event": "show fixation"}, {"time": 191.0323914999608, "event": "start sound"}, {"time": 191.0332040998619, "event": "start decision window"}, {"time": 191.79653049982153, "event": "response"}, {"time": 194.20942099997774, "event": "done"}]}, {"trial": {"cue_direction": "left", "stimulus": "B|A", "correct_response": "j", "left_cue_condition": 0.5, "stimA_condition": 0.5, "response": "j", "performance": "Correct", "rt": 2.7821152999531478}, "events": [{"time": 194.23346779984422, "event": "initialize", "status": "ok"}, {"time": 194.23377479985356, "event": "start recording"}, {"time": 194.34505949984305, "event": "start"}, {"time": 194.35645139985718, "event": "show fixation"}, {"time": 194.86989520001225, "event": "show cue"}, {"time": 196.38928520004265, "event": "show fixation"}, {"time": 196.91537850000896, "event": "start sound"}, {"time": 196.91601719986647, "event": "start decision window"}, {"time": 197.61259969999082, "event": "response"}, {"time": 199.69814469991252, "event": "done"}]}, {"trial": {"cue_direction": "right", "stimulus": "B|A", "correct_response": "f", "left_cue_condition": 0.5, "stimA_condition": 0.5, "response": "f", "performance": "Correct", "rt": 2.3224597999360412}, "events": [{"time": 199.71699410001747, "event": "initialize", "status": "ok"}, {"time": 199.71725569991395, "event": "start recording"}, {"time": 199.8359415999148, "event": "start"}, {"time": 199.84619039995596, "event": "show fixation"}, {"time": 200.35658319992945, "event": "show cue"}, {"time": 201.87524459999986, "event": "show fixation"}, {"time": 202.39748319983482, "event": "start sound"}, {"time": 202.39831179985777, "event": "start decision window"}, {"time": 203.11657369998284, "event": "response"}, {"time": 204.72078209999017, "event": "done"}]}, {"trial": {"cue_direction": "right", "stimulus": "A|A", "correct_response": "f", "left_cue_condition": 0.5, "stimA_condition": 0.5, "response": "f", "performance": "Correct", "rt": 3.062465399969369}, "events": [{"time": 204.74686539988033, "event": "initialize", "status": "ok"}, {"time": 204.74713969998993, "event": "start recording"}, {"time": 204.85780719993636, "event": "start"}, {"time": 204.86584999994375, "event": "show fixation"}, {"time": 205.37884829984978, "event": "show cue"}, {"time": 206.90327379992232, "event": "show fixation"}, {"time": 207.4309449000284, "event": "start sound"}, {"time": 207.4317375998944, "event": "start decision window"}, {"time": 208.3005919000134, "event": "response"}, {"time": 210.4942135999445, "event": "done"}]}, {"trial": {"cue_direction": "left", "stimulus": "B|A", "correct_response": "j", "left_cue_condition": 0.5, "stimA_condition": 0.5, "response": "f", "performance": "Incorrect", "rt": 2.6891191001050174}, "events": [{"time": 210.51349039981142, "event": "initialize", "status": "ok"}, {"time": 210.51373659982346, "event": "start recording"}, {"time": 210.63635539985262, "event": "start"}, {"time": 210.64849789999425, "event": "show fixation"}, {"time": 211.15935790003277, "event": "show cue"}, {"time": 212.68060819990933, "event": "show fixation"}, {"time": 213.22361159999855, "event": "start sound"}, {"time": 213.22447360004298, "event": "start decision window"}, {"time": 214.12456849985756, "event": "response"}, {"time": 215.9136099999305, "event": "done"}]}, {"trial": {"cue_direction": "right", "stimulus": "A|B", "correct_response": "j", "left_cue_condition": 0.5, "stimA_condition": 0.5, "response": "j", "performance": "Correct", "rt": 4.1387124001048505}, "events": [{"time": 215.9282610998489, "event": "initialize", "status": "ok"}, {"time": 215.9286460999865, "event": "start recording"}, {"time": 216.03991979989223, "event": "start"}, {"time": 216.05084999999963, "event": "show fixation"}, {"time": 216.5588205999229, "event": "show cue"}, {"time": 218.08151699998416, "event": "show fixation"}, {"time": 218.60441209981218, "event": "start sound"}, {"time": 218.60512920003384, "event": "start decision window"}, {"time": 220.98853129986674, "event": "response"}, {"time": 222.74385700002313, "event": "done"}]}, {"trial": {"cue_direction": "left", "stimulus": "B|B", "correct_response": "j", "left_cue_condition": 0.9, "stimA_condition": 0.3, "response": "j", "performance": "Correct", "rt": 2.563760600052774}, "events": [{"time": 258.2782631998416, "event": "initialize", "status": "ok"}, {"time": 258.2787334998138, "event": "start recording"}, {"time": 258.389115100028, "event": "start"}, {"time": 258.40191160002723, "event": "show fixation"}, {"time": 258.92012349981815, "event": "show cue"}, {"time": 260.43881940003484, "event": "show fixation"}, {"time": 260.95893269986846, "event": "start sound"}, {"time": 260.9597418999765, "event": "start decision window"}, {"time": 261.72454149997793, "event": "response"}, {"time": 263.5235323999077, "event": "done"}]}, {"trial": {"cue_direction": "left", "stimulus": "B|B", "correct_response": "j", "left_cue_condition": 0.9, "stimA_condition": 0.3, "response": "j", "performance": "Correct", "rt": 2.5545552999246866}, "events": [{"time": 263.55018439982086, "event": "initialize", "status": "ok"}, {"time": 263.5506310998462, "event": "start recording"}, {"time": 263.6621799999848, "event": "start"}, {"time": 263.6750486998353, "event": "show fixation"}, {"time": 264.1859456000384, "event": "show cue"}, {"time": 265.69768429989927, "event": "show fixation"}, {"time": 266.22869419981726, "event": "start sound"}, {"time": 266.2296686999034, "event": "start decision window"}, {"time": 266.69254709989764, "event": "response"}, {"time": 268.78424439998344, "event": "done"}]}, {"trial": {"cue_direction": "right", "stimulus": "B|A", "correct_response": "f", "left_cue_condition": 0.9, "stimA_condition": 0.3, "response": "f", "performance": "Correct", "rt": 3.0363429998978972}, "events": [{"time": 268.81097909994423, "event": "initialize", "status": "ok"}, {"time": 268.8114236998372, "event": "start recording"}, {"time": 268.9265465999488, "event": "start"}, {"time": 268.9323982000351, "event": "show fixation"}, {"time": 269.4430442999583, "event": "show cue"}, {"time": 270.96458899998106, "event": "show fixation"}, {"time": 271.4894077000208, "event": "start sound"}, {"time": 271.4900925999973, "event": "start decision window"}, {"time": 272.5805965999607, "event": "response"}, {"time": 274.5264435999561, "event": "done"}]}, {"trial": {"cue_direction": "left", "stimulus": "B|A", "correct_response": "j", "left_cue_condition": 0.9, "stimA_condition": 0.3, "response": "j", "performance": "Correct", "rt": 3.1666941000148654}, "events": [{"time": 274.5414801000152, "event": "initialize", "status": "ok"}, {"time": 274.54165020002984, "event": "start recording"}, {"time": 274.6659482999239, "event": "start"}, {"time": 274.67730059986934, "event": "show fixation"}, {"time": 275.186903399881, "event": "show cue"}, {"time": 276.7135464998428, "event": "show fixation"}, {"time": 277.24612879985943, "event": "start sound"}, {"time": 277.2470505000092, "event": "start decision window"}, {"time": 278.83659969992004, "event": "response"}, {"time": 280.41375419986434, "event": "done"}]}, {"trial": {"cue_direction": "left", "stimulus": "B|A", "correct_response": "j", "left_cue_condition": 0.9, "stimA_condition": 0.3, "response": "j", "performance": "Correct", "rt": 3.8857269000727683}, "events": [{"time": 280.4396648998372, "event": "initialize", "status": "ok"}, {"time": 280.4399378998205, "event": "start recording"}, {"time": 280.55070609995164, "event": "start"}, {"time": 280.5567147999536, "event": "show fixation"}, {"time": 281.06574509991333, "event": "show cue"}, {"time": 282.5782017998863, "event": "show fixation"}, {"time": 283.11403099983, "event": "start sound"}, {"time": 283.114843999967, "event": "start decision window"}, {"time": 284.78857719991356, "event": "response"}, {"time": 287.00058789993636, "event": "done"}]}, {"trial": {"cue_direction": "left", "stimulus": "A|B", "correct_response": "f", "left_cue_condition": 0.9, "stimA_condition": 0.3, "response": "f", "performance": "Correct", "rt": 2.512297600042075}, "events": [{"time": 287.02199079981074, "event": "initialize", "status": "ok"}, {"time": 287.0223323998507, "event": "start recording"}, {"time": 287.1408702998888, "event": "start"}, {"time": 287.1438186999876, "event": "show fixation"}, {"time": 287.65211519994773, "event": "show cue"}, {"time": 289.1763839998748, "event": "show fixation"}, {"time": 289.7041084000375, "event": "start sound"}, {"time": 289.7046656999737, "event": "start decision window"}, {"time": 290.20448879990727, "event": "response"}, {"time": 292.2169796000235, "event": "done"}]}, {"trial": {"cue_direction": "left", "stimulus": "B|B", "correct_response": "j", "left_cue_condition": 0.9, "stimA_condition": 0.3, "response": "j", "performance": "Correct", "rt": 2.638813199941069}, "events": [{"time": 292.23761439998634, "event": "initialize", "status": "ok"}, {"time": 292.23787879990414, "event": "start recording"}, {"time": 292.3590802999679, "event": "start"}, {"time": 292.3666562999133, "event": "show fixation"}, {"time": 292.87707769987173, "event": "show cue"}, {"time": 294.392559699947, "event": "show fixation"}, {"time": 294.9200738000218, "event": "start sound"}, {"time": 294.92079569981433, "event": "start decision window"}, {"time": 295.79652430000715, "event": "response"}, {"time": 297.55961919995025, "event": "done"}]}, {"trial": {"cue_direction": "left", "stimulus": "B|B", "correct_response": "j", "left_cue_condition": 0.9, "stimA_condition": 0.3, "response": "j", "performance": "Correct", "rt": 2.3477608000393957}, "events": [{"time": 297.58392350003123, "event": "initialize", "status": "ok"}, {"time": 297.5841973000206, "event": "start recording"}, {"time": 297.70045999996364, "event": "start"}, {"time": 297.7034077998251, "event": "show fixation"}, {"time": 298.21195619995706, "event": "show cue"}, {"time": 299.7354426998645, "event": "show fixation"}, {"time": 300.2614568998106, "event": "start sound"}, {"time": 300.2624283998739, "event": "start decision window"}, {"time": 301.0765158999711, "event": "response"}, {"time": 302.61020869994536, "event": "done"}]}, {"trial": {"cue_direction": "left", "stimulus": "A|B", "correct_response": "f", "left_cue_condition": 0.9, "stimA_condition": 0.3, "response": "f", "performance": "Correct", "rt": 3.087957500014454}, "events": [{"time": 302.6337984998245, "event": "initialize", "status": "ok"}, {"time": 302.6340641998686, "event": "start recording"}, {"time": 302.744908799883, "event": "start"}, {"time": 302.75695549999364, "event": "show fixation"}, {"time": 303.26632519997656, "event": "show cue"}, {"time": 304.7859569999855, "event": "show fixation"}, {"time": 305.30972300004214, "event": "start sound"}, {"time": 305.31075419997796, "event": "start decision window"}, {"time": 306.47651319997385, "event": "response"}, {"time": 308.39871810004115, "event": "done"}]}, {"trial": {"cue_direction": "left", "stimulus": "B|B", "correct_response": "j", "left_cue_condition": 0.9, "stimA_condition": 0.3, "response": "j", "performance": "Correct", "rt": 2.373551400145516}, "events": [{"time": 308.41322609991767, "event": "initialize", "status": "ok"}, {"time": 308.4133977999445, "event": "start recording"}, {"time": 308.52436779998243, "event": "start"}, {"time": 308.53556079999544, "event": "show fixation"}, {"time": 309.04500579996966, "event": "show cue"}, {"time": 310.5676785998512, "event": "show fixation"}, {"time": 311.0894170999527, "event": "start sound"}, {"time": 311.0899761999026, "event": "start decision window"}, {"time": 311.5244622998871, "event": "response"}, {"time": 313.46353439986706, "event": "done"}]}, {"trial": {"cue_direction": "left", "stimulus": "B|A", "correct_response": "j", "left_cue_condition": 0.9, "stimA_condition": 0.3, "response": "j", "performance": "Correct", "rt": 3.226451799971983}, "events": [{"time": 313.4782926000189, "event": "initialize", "status": "ok"}, {"time": 313.47847880003974, "event": "start recording"}, {"time": 313.605176899815, "event": "start"}, {"time": 313.61658809985965, "event": "show fixation"}, {"time": 314.12508929986507, "event": "show cue"}, {"time": 315.6492075000424, "event": "show fixation"}, {"time": 316.1847005998716, "event": "start sound"}, {"time": 316.1854530000128, "event": "start decision window"}, {"time": 317.5965199000202, "event": "response"}, {"time": 319.4119155998342, "event": "done"}]}, {"trial": {"cue_direction": "left", "stimulus": "B|B", "correct_response": "j", "left_cue_condition": 0.9, "stimA_condition": 0.3, "response": "j", "performance": "Correct", "rt": 3.1309697998221964}, "events": [{"time": 319.4272459000349, "event": "initialize", "status": "ok"}, {"time": 319.4274965999648, "event": "start recording"}, {"time": 319.5383591998834, "event": "start"}, {"time": 319.54145399993286, "event": "show fixation"}, {"time": 320.05268269986846, "event": "show cue"}, {"time": 321.5632158999797, "event": "show fixation"}, {"time": 322.0904082998168, "event": "start sound"}, {"time": 322.09096079994924, "event": "start decision window"}, {"time": 322.9325435999781, "event": "response"}, {"time": 325.2219391998369, "event": "done"}]}, {"trial": {"cue_direction": "left", "stimulus": "B|B", "correct_response": "j", "left_cue_condition": 0.9, "stimA_condition": 0.3, "response": "j", "performance": "Correct", "rt": 2.3004296999424696}, "events": [{"time": 325.24159919982776, "event": "initialize", "status": "ok"}, {"time": 325.24179130000994, "event": "start recording"}, {"time": 325.3614874999039, "event": "start"}, {"time": 325.36751569993794, "event": "show fixation"}, {"time": 325.8795087998733, "event": "show cue"}, {"time": 327.3971301999409, "event": "show fixation"}, {"time": 327.93345879996195, "event": "start sound"}, {"time": 327.9343240999151, "event": "start decision window"}, {"time": 328.4284631998744, "event": "response"}, {"time": 330.234756299993, "event": "done"}]}, {"trial": {"cue_direction": "left", "stimulus": "B|A", "correct_response": "j", "left_cue_condition": 0.9, "stimA_condition": 0.3, "response": "j", "performance": "Correct", "rt": 3.803301699925214}, "events": [{"time": 330.2566613999661, "event": "initialize", "status": "ok"}, {"time": 330.25682609993964, "event": "start recording"}, {"time": 330.37530439998955, "event": "start"}, {"time": 330.38689969992265, "event": "show fixation"}, {"time": 330.8983688999433, "event": "show cue"}, {"time": 332.4120997998398, "event": "show fixation"}, {"time": 332.9393817000091, "event": "start sound"}, {"time": 332.94004029990174, "event": "start decision window"}, {"time": 334.44447540002875, "event": "response"}, {"time": 336.74335139989853, "event": "done"}]}, {"trial": {"cue_direction": "left", "stimulus": "B|B", "correct_response": "j", "left_cue_condition": 0.9, "stimA_condition": 0.3, "response": "j", "performance": "Correct", "rt": 2.53373090014793}, "events": [{"time": 336.7562239000108, "event": "initialize", "status": "ok"}, {"time": 336.7564701999072, "event": "start recording"}, {"time": 336.8865755998995, "event": "start"}, {"time": 336.8990642998833, "event": "show fixation"}, {"time": 337.41094209998846, "event": "show cue"}, {"time": 338.92651039990596, "event": "show fixation"}, {"time": 339.4621373999398, "event": "start sound"}, {"time": 339.46288579981774, "event": "start decision window"}, {"time": 340.0845985999331, "event": "response"}, {"time": 341.9966267000418, "event": "done"}]}, {"trial": {"cue_direction": "left", "stimulus": "B|B", "correct_response": "j", "left_cue_condition": 0.9, "stimA_condition": 0.3, "response": "j", "performance": "Correct", "rt": 2.7125884001143277}, "events": [{"time": 342.01906489999965, "event": "initialize", "status": "ok"}, {"time": 342.0192915999796, "event": "start recording"}, {"time": 342.13667619996704, "event": "start"}, {"time": 342.1489154000301, "event": "show fixation"}, {"time": 342.6604392998852, "event": "show cue"}, {"time": 344.1722343999427, "event": "show fixation"}, {"time": 344.7009167999495, "event": "start sound"}, {"time": 344.70146210002713, "event": "start decision window"}, {"time": 345.26854049996473, "event": "response"}, {"time": 347.4140882999636, "event": "done"}]}, {"trial": {"cue_direction": "left", "stimulus": "B|B", "correct_response": "j", "left_cue_condition": 0.9, "stimA_condition": 0.3, "response": "j", "performance": "Correct", "rt": 2.6234571000095457}, "events": [{"time": 347.43924879981205, "event": "initialize", "status": "ok"}, {"time": 347.4399192999117, "event": "start recording"}, {"time": 347.5517741998192, "event": "start"}, {"time": 347.5618280998897, "event": "show fixation"}, {"time": 348.0707439999096, "event": "show cue"}, {"time": 349.596707199933, "event": "show fixation"}, {"time": 350.1307752998546, "event": "start sound"}, {"time": 350.1313960000407, "event": "start decision window"}, {"time": 350.54861920000985, "event": "response"}, {"time": 352.75486389989965, "event": "done"}]}, {"trial": {"cue_direction": "left", "stimulus": "B|A", "correct_response": "j", "left_cue_condition": 0.9, "stimA_condition": 0.3, "response": "j", "performance": "Correct", "rt": 3.166170399868861}, "events": [{"time": 352.7823719999287, "event": "initialize", "status": "ok"}, {"time": 352.7826526998542, "event": "start recording"}, {"time": 352.89398940000683, "event": "start"}, {"time": 352.90038919984363, "event": "show fixation"}, {"time": 353.4099077999126, "event": "show cue"}, {"time": 354.94027409981936, "event": "show fixation"}, {"time": 355.4705133999232, "event": "start sound"}, {"time": 355.4712031998206, "event": "start decision window"}, {"time": 356.99645789992064, "event": "response"}, {"time": 358.6373985998798, "event": "done"}]}, {"trial": {"cue_direction": "left", "stimulus": "B|B", "correct_response": "j", "left_cue_condition": 0.9, "stimA_condition": 0.3, "response": "j", "performance": "Correct", "rt": 1.963170100003481}, "events": [{"time": 358.6657725998666, "event": "initialize", "status": "ok"}, {"time": 358.666247199988, "event": "start recording"}, {"time": 358.7830798998475, "event": "start"}, {"time": 358.78797619999386, "event": "show fixation"}, {"time": 359.30118829989806, "event": "show cue"}, {"time": 360.8246903999243, "event": "show fixation"}, {"time": 361.3557291999459, "event": "start sound"}, {"time": 361.3562652999535, "event": "start decision window"}, {"time": 361.79644099995494, "event": "response"}, {"time": 363.31944669992663, "event": "done"}]}, {"trial": {"cue_direction": "left", "stimulus": "A|B", "correct_response": "f", "left_cue_condition": 0.9, "stimA_condition": 0.3, "response": "f", "performance": "Correct", "rt": 3.0740253999829292}, "events": [{"time": 363.344985099975, "event": "initialize", "status": "ok"}, {"time": 363.3452208000235, "event": "start recording"}, {"time": 363.4581718998961, "event": "start"}, {"time": 363.4632011000067, "event": "show fixation"}, {"time": 363.98037929995917, "event": "show cue"}, {"time": 365.50228359992616, "event": "show fixation"}, {"time": 366.0221913999412, "event": "start sound"}, {"time": 366.0228032998275, "event": "start decision window"}, {"time": 366.9165252998937, "event": "response"}, {"time": 369.09684140002355, "event": "done"}]}, {"trial": {"cue_direction": "left", "stimulus": "B|B", "correct_response": "j", "left_cue_condition": 0.9, "stimA_condition": 0.3, "response": "j", "performance": "Correct", "rt": 3.206921099917963}, "events": [{"time": 369.11182400002144, "event": "initialize", "status": "ok"}, {"time": 369.11208430002443, "event": "start recording"}, {"time": 369.23964379983954, "event": "start"}, {"time": 369.2512276000343, "event": "show fixation"}, {"time": 369.7611078999471, "event": "show cue"}, {"time": 371.28171109990217, "event": "show fixation"}, {"time": 371.80733099998906, "event": "start sound"}, {"time": 371.807884400012, "event": "start decision window"}, {"time": 372.5084599999245, "event": "response"}, {"time": 375.01481169997714, "event": "done"}]}, {"trial": {"cue_direction": "right", "stimulus": "A|B", "correct_response": "j", "left_cue_condition": 0.9, "stimA_condition": 0.3, "response": "f", "performance": "Incorrect", "rt": 3.0433299001306295}, "events": [{"time": 375.0400650999509, "event": "initialize", "status": "ok"}, {"time": 375.0402251998894, "event": "start recording"}, {"time": 375.1550960999448, "event": "start"}, {"time": 375.16785599989817, "event": "show fixation"}, {"time": 375.680567599833, "event": "show cue"}, {"time": 377.19664460001513, "event": "show fixation"}, {"time": 377.725010599941, "event": "start sound"}, {"time": 377.72567079984583, "event": "start decision window"}, {"time": 378.6284137999173, "event": "response"}, {"time": 380.76902349991724, "event": "done"}]}, {"trial": {"cue_direction": "left", "stimulus": "A|B", "correct_response": "f", "left_cue_condition": 0.9, "stimA_condition": 0.3, "response": "f", "performance": "Correct", "rt": 3.6362476001959294}, "events": [{"time": 380.7899886998348, "event": "initialize", "status": "ok"}, {"time": 380.79020669986494, "event": "start recording"}, {"time": 380.90067659993656, "event": "start"}, {"time": 380.911112499889, "event": "show fixation"}, {"time": 381.42068520002067, "event": "show cue"}, {"time": 382.9448045999743, "event": "show fixation"}, {"time": 383.48446329985745, "event": "start sound"}, {"time": 383.4852183999028, "event": "start decision window"}, {"time": 384.76449480000883, "event": "response"}, {"time": 387.12147159990855, "event": "done"}]}, {"trial": {"cue_direction": "left", "stimulus": "A|B", "correct_response": "f", "left_cue_condition": 0.9, "stimA_condition": 0.3, "response": "f", "performance": "Correct", "rt": 3.101554200053215}, "events": [{"time": 387.1380195999518, "event": "initialize", "status": "ok"}, {"time": 387.13819099985994, "event": "start recording"}, {"time": 387.2634407998994, "event": "start"}, {"time": 387.2680865000002, "event": "show fixation"}, {"time": 387.77683439990506, "event": "show cue"}, {"time": 389.2927168000024, "event": "show fixation"}, {"time": 389.8182196000125, "event": "start sound"}, {"time": 389.8187510999851, "event": "start decision window"}, {"time": 390.54845849983394, "event": "response"}, {"time": 392.9203178999014, "event": "done"}]}, {"trial": {"cue_direction": "left", "stimulus": "B|B", "correct_response": "j", "left_cue_condition": 0.9, "stimA_condition": 0.3, "response": "j", "performance": "Correct", "rt": 1.9776618001051247}, "events": [{"time": 392.9372375998646, "event": "initialize", "status": "ok"}, {"time": 392.937497299863, "event": "start recording"}, {"time": 393.0484932998661, "event": "start"}, {"time": 393.0576098000165, "event": "show fixation"}, {"time": 393.56990409991704, "event": "show cue"}, {"time": 395.0892850998789, "event": "show fixation"}, {"time": 395.62196259992197, "event": "start sound"}, {"time": 395.62273960001767, "event": "start decision window"}, {"time": 396.02840780001134, "event": "response"}, {"time": 397.6004142998718, "event": "done"}]}, {"trial": {"cue_direction": "left", "stimulus": "B|A", "correct_response": "j", "left_cue_condition": 0.9, "stimA_condition": 0.3, "response": "j", "performance": "Correct", "rt": 3.439085900085047}, "events": [{"time": 397.6195574000012, "event": "initialize", "status": "ok"}, {"time": 397.61985230003484, "event": "start recording"}, {"time": 397.73114379984327, "event": "start"}, {"time": 397.74309889995493, "event": "show fixation"}, {"time": 398.2572468998842, "event": "show cue"}, {"time": 399.7764575998299, "event": "show fixation"}, {"time": 400.3141009998508, "event": "start sound"}, {"time": 400.31486479984596, "event": "start decision window"}, {"time": 402.14840959990397, "event": "response"}, {"time": 403.75395709997974, "event": "done"}]}, {"trial": {"cue_direction": "left", "stimulus": "B|A", "correct_response": "j", "left_cue_condition": 0.9, "stimA_condition": 0.3, "response": "f", "performance": "Incorrect", "rt": 2.842331900028512}, "events": [{"time": 403.781145399902, "event": "initialize", "status": "ok"}, {"time": 403.7814060000237, "event": "start recording"}, {"time": 403.89512509992346, "event": "start"}, {"time": 403.89844949985854, "event": "show fixation"}, {"time": 404.4150147999171, "event": "show cue"}, {"time": 405.93756140000187, "event": "show fixation"}, {"time": 406.482238000026, "event": "start sound"}, {"time": 406.4830024000257, "event": "start decision window"}, {"time": 407.8043906998355, "event": "response"}, {"time": 409.32538179983385, "event": "done"}]}, {"trial": {"cue_direction": "right", "stimulus": "B|B", "correct_response": "j", "left_cue_condition": 0.9, "stimA_condition": 0.3, "response": "j", "performance": "Correct", "rt": 2.8145330001134425}, "events": [{"time": 409.35427360003814, "event": "initialize", "status": "ok"}, {"time": 409.3547403998673, "event": "start recording"}, {"time": 409.4667142999824, "event": "start"}, {"time": 409.47849999996834, "event": "show fixation"}, {"time": 409.98742679995485, "event": "show cue"}, {"time": 411.50095739983954, "event": "show fixation"}, {"time": 412.024890499888, "event": "start sound"}, {"time": 412.02564070001245, "event": "start decision window"}, {"time": 412.83643459994346, "event": "response"}, {"time": 414.8402032998856, "event": "done"}]}, {"trial": {"cue_direction": "left", "stimulus": "B|B", "correct_response": "j", "left_cue_condition": 0.9, "stimA_condition": 0.3, "response": "j", "performance": "Correct", "rt": 2.5131050997879356}, "events": [{"time": 414.8617906998843, "event": "initialize", "status": "ok"}, {"time": 414.8619486000389, "event": "start recording"}, {"time": 414.9727252998855, "event": "start"}, {"time": 414.9850033998955, "event": "show fixation"}, {"time": 415.4996320998762, "event": "show cue"}, {"time": 417.0169307999313, "event": "show fixation"}, {"time": 417.5411226998549, "event": "start sound"}, {"time": 417.5416717999615, "event": "start decision window"}, {"time": 418.1724606999196, "event": "response"}, {"time": 420.0547880998347, "event": "done"}]}, {"trial": {"cue_direction": "left", "stimulus": "B|B", "correct_response": "j", "left_cue_condition": 0.9, "stimA_condition": 0.3, "response": "j", "performance": "Correct", "rt": 2.902296799933538}, "events": [{"time": 420.07703069993295, "event": "initialize", "status": "ok"}, {"time": 420.0772744999267, "event": "start recording"}, {"time": 420.1939281998202, "event": "start"}, {"time": 420.2064545999747, "event": "show fixation"}, {"time": 420.7212586000096, "event": "show cue"}, {"time": 422.2472031998914, "event": "show fixation"}, {"time": 422.7882693998981, "event": "start sound"}, {"time": 422.7891255998984, "event": "start decision window"}, {"time": 423.356614299817, "event": "response"}, {"time": 425.69145779986866, "event": "done"}]}, {"trial": {"cue_direction": "right", "stimulus": "A|A", "correct_response": "f", "left_cue_condition": 0.3, "stimA_condition": 0.9, "response": "f", "performance": "Correct", "rt": 2.8393969000317156}, "events": [{"time": 471.60697049996816, "event": "initialize", "status": "ok"}, {"time": 471.6072994999122, "event": "start recording"}, {"time": 471.7172003998421, "event": "start"}, {"time": 471.73279069992714, "event": "show fixation"}, {"time": 472.2429501998704, "event": "show cue"}, {"time": 473.76666809991, "event": "show fixation"}, {"time": 474.2906455998309, "event": "start sound"}, {"time": 474.29143069987185, "event": "start decision window"}, {"time": 474.66044639982283, "event": "response"}, {"time": 477.1308328998275, "event": "done"}]}, {"trial": {"cue_direction": "right", "stimulus": "B|A", "correct_response": "f", "left_cue_condition": 0.3, "stimA_condition": 0.9, "response": "f", "performance": "Correct", "rt": 3.3143112999387085}, "events": [{"time": 477.14129960001446, "event": "initialize", "status": "ok"}, {"time": 477.14148169988766, "event": "start recording"}, {"time": 477.2520502000116, "event": "start"}, {"time": 477.2556453999132, "event": "show fixation"}, {"time": 477.7643690998666, "event": "show cue"}, {"time": 479.27749809995294, "event": "show fixation"}, {"time": 479.8175127999857, "event": "start sound"}, {"time": 479.8184244998265, "event": "start decision window"}, {"time": 481.21242889994755, "event": "response"}, {"time": 483.132757099811, "event": "done"}]}, {"trial": {"cue_direction": "left", "stimulus": "A|A", "correct_response": "f", "left_cue_condition": 0.3, "stimA_condition": 0.9, "response": "f", "performance": "Correct", "rt": 3.2571463000494987}, "events": [{"time": 483.1571942998562, "event": "initialize", "status": "ok"}, {"time": 483.15767230000347, "event": "start recording"}, {"time": 483.2737777000293, "event": "start"}, {"time": 483.2837093998678, "event": "show fixation"}, {"time": 483.7993238000199, "event": "show cue"}, {"time": 485.30822849995457, "event": "show fixation"}, {"time": 485.8367331000045, "event": "start sound"}, {"time": 485.8374242999125, "event": "start decision window"}, {"time": 486.8203664999455, "event": "response"}, {"time": 489.0946053999942, "event": "done"}]}, {"trial": {"cue_direction": "left", "stimulus": "A|A", "correct_response": "f", "left_cue_condition": 0.3, "stimA_condition": 0.9, "response": "f", "performance": "Correct", "rt": 2.378398699918762}, "events": [{"time": 489.1240393000189, "event": "initialize", "status": "ok"}, {"time": 489.1247455999255, "event": "start recording"}, {"time": 489.2378516998142, "event": "start"}, {"time": 489.25148019986227, "event": "show fixation"}, {"time": 489.7615004000254, "event": "show cue"}, {"time": 491.2771612999495, "event": "show fixation"}, {"time": 491.80375669989735, "event": "start sound"}, {"time": 491.80461899982765, "event": "start decision window"}, {"time": 492.2923453999683, "event": "response"}, {"time": 494.1830575999338, "event": "done"}]}, {"trial": {"cue_direction": "right", "stimulus": "A|A", "correct_response": "f", "left_cue_condition": 0.3, "stimA_condition": 0.9, "response": "f", "performance": "Correct", "rt": 2.625636799959466}, "events": [{"time": 494.20409479993396, "event": "initialize", "status": "ok"}, {"time": 494.2046056999825, "event": "start recording"}, {"time": 494.3276504999958, "event": "start"}, {"time": 494.3366686999798, "event": "show fixation"}, {"time": 494.8459520000033, "event": "show cue"}, {"time": 496.35752770002, "event": "show fixation"}, {"time": 496.88388169999234, "event": "start sound"}, {"time": 496.88462939998135, "event": "start decision window"}, {"time": 497.34840579982847, "event": "response"}, {"time": 499.51027309987694, "event": "done"}]}, {"trial": {"cue_direction": "left", "stimulus": "A|A", "correct_response": "f", "left_cue_condition": 0.3, "stimA_condition": 0.9, "response": "f", "performance": "Correct", "rt": 2.2011264998000115}, "events": [{"time": 499.532609899994, "event": "initialize", "status": "ok"}, {"time": 499.5328124000225, "event": "start recording"}, {"time": 499.64900059998035, "event": "start"}, {"time": 499.6596268999856, "event": "show fixation"}, {"time": 500.17327839997597, "event": "show cue"}, {"time": 501.6944627999328, "event": "show fixation"}, {"time": 502.23938689986244, "event": "start sound"}, {"time": 502.24041639990173, "event": "start decision window"}, {"time": 502.604350999929, "event": "response"}, {"time": 504.4415600998327, "event": "done"}]}, {"trial": {"cue_direction": "right", "stimulus": "A|A", "correct_response": "f", "left_cue_condition": 0.3, "stimA_condition": 0.9, "response": "f", "performance": "Correct", "rt": 2.5925223000813276}, "events": [{"time": 504.46523109986447, "event": "initialize", "status": "ok"}, {"time": 504.46561249997467, "event": "start recording"}, {"time": 504.57715219981037, "event": "start"}, {"time": 504.5806857999414, "event": "show fixation"}, {"time": 505.0879565998912, "event": "show cue"}, {"time": 506.60123819997534, "event": "show fixation"}, {"time": 507.12755319988355, "event": "start sound"}, {"time": 507.1282736000139, "event": "start decision window"}, {"time": 507.4923524998594, "event": "response"}, {"time": 509.72080360003747, "event": "done"}]}, {"trial": {"cue_direction": "left", "stimulus": "A|A", "correct_response": "f", "left_cue_condition": 0.3, "stimA_condition": 0.9, "response": "f", "performance": "Correct", "rt": 2.8378660001326352}, "events": [{"time": 509.7459754999727, "event": "initialize", "status": "ok"}, {"time": 509.7461943998933, "event": "start recording"}, {"time": 509.85747139994055, "event": "start"}, {"time": 509.8692983998917, "event": "show fixation"}, {"time": 510.38011409994215, "event": "show cue"}, {"time": 511.9002986999694, "event": "show fixation"}, {"time": 512.4315025999676, "event": "start sound"}, {"time": 512.4323972000275, "event": "start decision window"}, {"time": 512.8523589000106, "event": "response"}, {"time": 515.2702728998847, "event": "done"}]}, {"trial": {"cue_direction": "right", "stimulus": "A|A", "correct_response": "f", "left_cue_condition": 0.3, "stimA_condition": 0.9, "response": "f", "performance": "Correct", "rt": 2.0127711000386626}, "events": [{"time": 515.2944620000198, "event": "initialize", "status": "ok"}, {"time": 515.2947523000184, "event": "start recording"}, {"time": 515.4119559000246, "event": "start"}, {"time": 515.4227976000402, "event": "show fixation"}, {"time": 515.9321037000045, "event": "show cue"}, {"time": 517.4552062000148, "event": "show fixation"}, {"time": 517.9742075998802, "event": "start sound"}, {"time": 517.9749006000347, "event": "start decision window"}, {"time": 518.4124272000045, "event": "response"}, {"time": 519.9876896999776, "event": "done"}]}, {"trial": {"cue_direction": "right", "stimulus": "A|A", "correct_response": "f", "left_cue_condition": 0.3, "stimA_condition": 0.9, "response": "f", "performance": "Correct", "rt": 2.48829590016976}, "events": [{"time": 520.0104274998885, "event": "initialize", "status": "ok"}, {"time": 520.0107378999237, "event": "start recording"}, {"time": 520.1298958000261, "event": "start"}, {"time": 520.1395961998496, "event": "show fixation"}, {"time": 520.6532014999539, "event": "show cue"}, {"time": 522.1670645999257, "event": "show fixation"}, {"time": 522.7026938998606, "event": "start sound"}, {"time": 522.703341400018, "event": "start decision window"}, {"time": 523.1004212000407, "event": "response"}, {"time": 525.1916932999156, "event": "done"}]}, {"trial": {"cue_direction": "left", "stimulus": "A|A", "correct_response": "f", "left_cue_condition": 0.3, "stimA_condition": 0.9, "response": "f", "performance": "Correct", "rt": 2.60274889995344}, "events": [{"time": 525.2120715999044, "event": "initialize", "status": "ok"}, {"time": 525.2127386999782, "event": "start recording"}, {"time": 525.324368200032, "event": "start"}, {"time": 525.3331826999784, "event": "show fixation"}, {"time": 525.8456629000138, "event": "show cue"}, {"time": 527.3689845998306, "event": "show fixation"}, {"time": 527.8869983998593, "event": "start sound"}, {"time": 527.8878870999906, "event": "start decision window"}, {"time": 528.2363244998269, "event": "response"}, {"time": 530.4906639999244, "event": "done"}]}, {"trial": {"cue_direction": "left", "stimulus": "A|A", "correct_response": "f", "left_cue_condition": 0.3, "stimA_condition": 0.9, "response": "f", "performance": "Correct", "rt": 2.6994004000443965}, "events": [{"time": 530.5110504999757, "event": "initialize", "status": "ok"}, {"time": 530.511415899964, "event": "start recording"}, {"time": 530.6223122999072, "event": "start"}, {"time": 530.6280649998225, "event": "show fixation"}, {"time": 531.1371287000366, "event": "show cue"}, {"time": 532.6583304000087, "event": "show fixation"}, {"time": 533.1970744999126, "event": "start sound"}, {"time": 533.1977651999332, "event": "start decision window"}, {"time": 533.6763249000069, "event": "response"}, {"time": 535.897175999824, "event": "done"}]}, {"trial": {"cue_direction": "right", "stimulus": "A|A", "correct_response": "f", "left_cue_condition": 0.3, "stimA_condition": 0.9, "response": "f", "performance": "Correct", "rt": 2.627343100029975}, "events": [{"time": 535.9210371000227, "event": "initialize", "status": "ok"}, {"time": 535.9213063998614, "event": "start recording"}, {"time": 536.0384659999982, "event": "start"}, {"time": 536.0497007998638, "event": "show fixation"}, {"time": 536.5616996998433, "event": "show cue"}, {"time": 538.079595200019, "event": "show fixation"}, {"time": 538.6109870998189, "event": "start sound"}, {"time": 538.6116537000053, "event": "start decision window"}, {"time": 539.0444504998159, "event": "response"}, {"time": 541.2390051998664, "event": "done"}]}, {"trial": {"cue_direction": "left", "stimulus": "A|A", "correct_response": "f", "left_cue_condition": 0.3, "stimA_condition": 0.9, "response": "f", "performance": "Correct", "rt": 2.6387419002130628}, "events": [{"time": 541.2542663000058, "event": "initialize", "status": "ok"}, {"time": 541.2545532998629, "event": "start recording"}, {"time": 541.3798252998386, "event": "start"}, {"time": 541.3918220999185, "event": "show fixation"}, {"time": 541.901302699931, "event": "show cue"}, {"time": 543.4251474998891, "event": "show fixation"}, {"time": 543.9622478999663, "event": "start sound"}, {"time": 543.9629853998777, "event": "start decision window"}, {"time": 544.428406199906, "event": "response"}, {"time": 546.6017501999158, "event": "done"}]}, {"trial": {"cue_direction": "left", "stimulus": "A|A", "correct_response": "f", "left_cue_condition": 0.3, "stimA_condition": 0.9, "response": "f", "performance": "Correct", "rt": 2.0073323999531567}, "events": [{"time": 546.6201535998844, "event": "initialize", "status": "ok"}, {"time": 546.6206224998459, "event": "start recording"}, {"time": 546.7429219998885, "event": "start"}, {"time": 546.7515485999174, "event": "show fixation"}, {"time": 547.2591393999755, "event": "show cue"}, {"time": 548.7707779998891, "event": "show fixation"}, {"time": 549.2976899999194, "event": "start sound"}, {"time": 549.29825360002, "event": "start decision window"}, {"time": 549.6683279999997, "event": "response"}, {"time": 551.3055908000097, "event": "done"}]}, {"trial": {"cue_direction": "left", "stimulus": "A|A", "correct_response": "f", "left_cue_condition": 0.3, "stimA_condition": 0.9, "response": "f", "performance": "Correct", "rt": 2.761762199923396}, "events": [{"time": 551.3165555000305, "event": "initialize", "status": "ok"}, {"time": 551.3167331998702, "event": "start recording"}, {"time": 551.4490173000377, "event": "start"}, {"time": 551.4600264998153, "event": "show fixation"}, {"time": 551.9707312998362, "event": "show cue"}, {"time": 553.4940883000381, "event": "show fixation"}, {"time": 554.0322874998674, "event": "start sound"}, {"time": 554.0328191998415, "event": "start decision window"}, {"time": 554.3963841998484, "event": "response"}, {"time": 556.794605899835, "event": "done"}]}, {"trial": {"cue_direction": "right", "stimulus": "A|A", "correct_response": "f", "left_cue_condition": 0.3, "stimA_condition": 0.9, "response": "f", "performance": "Correct", "rt": 2.3948099999688566}, "events": [{"time": 556.8188473999035, "event": "initialize", "status": "ok"}, {"time": 556.8193157999776, "event": "start recording"}, {"time": 556.9361010999419, "event": "start"}, {"time": 556.94438120001, "event": "show fixation"}, {"time": 557.4536572999787, "event": "show cue"}, {"time": 558.9734038999304, "event": "show fixation"}, {"time": 559.500416399911, "event": "start sound"}, {"time": 559.5011114999652, "event": "start decision window"}, {"time": 559.9644106000196, "event": "response"}, {"time": 561.8959901998751, "event": "done"}]}, {"trial": {"cue_direction": "right", "stimulus": "A|A", "correct_response": "f", "left_cue_condition": 0.3, "stimA_condition": 0.9, "response": "f", "performance": "Correct", "rt": 2.071959599852562}, "events": [{"time": 561.9153320000041, "event": "initialize", "status": "ok"}, {"time": 561.9156351999845, "event": "start recording"}, {"time": 562.0395837000106, "event": "start"}, {"time": 562.042618899839, "event": "show fixation"}, {"time": 562.5508729999419, "event": "show cue"}, {"time": 564.1107183999848, "event": "show fixation"}, {"time": 564.6284816998523, "event": "start sound"}, {"time": 564.6289957000408, "event": "start decision window"}, {"time": 565.0603729998693, "event": "response"}, {"time": 566.7009681998752, "event": "done"}]}, {"trial": {"cue_direction": "right", "stimulus": "A|A", "correct_response": "f", "left_cue_condition": 0.3, "stimA_condition": 0.9, "response": "f", "performance": "Correct", "rt": 2.6078145999927074}, "events": [{"time": 566.7126078999136, "event": "initialize", "status": "ok"}, {"time": 566.7128786998801, "event": "start recording"}, {"time": 566.8235214999877, "event": "start"}, {"time": 566.8355711998884, "event": "show fixation"}, {"time": 567.3457455998287, "event": "show cue"}, {"time": 568.8672068000305, "event": "show fixation"}, {"time": 569.393928800011, "event": "start sound"}, {"time": 569.3944843998179, "event": "start decision window"}, {"time": 569.7963057998568, "event": "response"}, {"time": 572.0023144998122, "event": "done"}]}, {"trial": {"cue_direction": "right", "stimulus": "A|B", "correct_response": "j", "left_cue_condition": 0.3, "stimA_condition": 0.9, "response": "j", "performance": "Correct", "rt": 2.7092009999323636}, "events": [{"time": 572.0263813999481, "event": "initialize", "status": "ok"}, {"time": 572.0267017998267, "event": "start recording"}, {"time": 572.1442633999977, "event": "start"}, {"time": 572.15424850001, "event": "show fixation"}, {"time": 572.6666292999871, "event": "show cue"}, {"time": 574.1839658999816, "event": "show fixation"}, {"time": 574.7041994000319, "event": "start sound"}, {"time": 574.7052066000178, "event": "start decision window"}, {"time": 575.3244105000049, "event": "response"}, {"time": 577.414433500031, "event": "done"}]}, {"trial": {"cue_direction": "right", "stimulus": "A|A", "correct_response": "f", "left_cue_condition": 0.3, "stimA_condition": 0.9, "response": "f", "performance": "Correct", "rt": 2.9115243998821825}, "events": [{"time": 577.441204499919, "event": "initialize", "status": "ok"}, {"time": 577.4415167998523, "event": "start recording"}, {"time": 577.5577322999015, "event": "start"}, {"time": 577.569884999888, "event": "show fixation"}, {"time": 578.0805556999985, "event": "show cue"}, {"time": 579.6032707998529, "event": "show fixation"}, {"time": 580.1473954999819, "event": "start sound"}, {"time": 580.1480979998596, "event": "start decision window"}, {"time": 580.5563051998615, "event": "response"}, {"time": 583.0596322999336, "event": "done"}]}, {"trial": {"cue_direction": "left", "stimulus": "A|A", "correct_response": "f", "left_cue_condition": 0.3, "stimA_condition": 0.9, "response": "f", "performance": "Correct", "rt": 2.411906599998474}, "events": [{"time": 583.0723277998623, "event": "initialize", "status": "ok"}, {"time": 583.0725795999169, "event": "start recording"}, {"time": 583.1837772999424, "event": "start"}, {"time": 583.1959356998559, "event": "show fixation"}, {"time": 583.7092803998385, "event": "show cue"}, {"time": 585.2337896998506, "event": "show fixation"}, {"time": 585.7801538999192, "event": "start sound"}, {"time": 585.7808982999995, "event": "start decision window"}, {"time": 586.1322919998784, "event": "response"}, {"time": 588.1928128998261, "event": "done"}]}, {"trial": {"cue_direction": "right", "stimulus": "A|B", "correct_response": "j", "left_cue_condition": 0.3, "stimA_condition": 0.9, "response": "j", "performance": "Correct", "rt": 2.7410378998611122}, "events": [{"time": 588.2049975998234, "event": "initialize", "status": "ok"}, {"time": 588.2052328998689, "event": "start recording"}, {"time": 588.3160454998724, "event": "start"}, {"time": 588.3252554000355, "event": "show fixation"}, {"time": 588.8381458998192, "event": "show cue"}, {"time": 590.3567641999107, "event": "show fixation"}, {"time": 590.8877264999319, "event": "start sound"}, {"time": 590.8883705998305, "event": "start decision window"}, {"time": 591.4684486000333, "event": "response"}, {"time": 593.6294248998165, "event": "done"}]}, {"trial": {"cue_direction": "right", "stimulus": "A|A", "correct_response": "f", "left_cue_condition": 0.3, "stimA_condition": 0.9, "response": "f", "performance": "Correct", "rt": 2.2523005998227745}, "events": [{"time": 593.653023699997, "event": "initialize", "status": "ok"}, {"time": 593.653382799821, "event": "start recording"}, {"time": 593.7715257999953, "event": "start"}, {"time": 593.7836439998355, "event": "show fixation"}, {"time": 594.2920552999713, "event": "show cue"}, {"time": 595.8097859998234, "event": "show fixation"}, {"time": 596.3313400999177, "event": "start sound"}, {"time": 596.3319055999164, "event": "start decision window"}, {"time": 596.7882916999515, "event": "response"}, {"time": 598.5842195998412, "event": "done"}]}, {"trial": {"cue_direction": "left", "stimulus": "A|A", "correct_response": "f", "left_cue_condition": 0.3, "stimA_condition": 0.9, "response": "f", "performance": "Correct", "rt": 2.8321037001442164}, "events": [{"time": 598.6020980998874, "event": "initialize", "status": "ok"}, {"time": 598.6024799000006, "event": "start recording"}, {"time": 598.7243514999282, "event": "start"}, {"time": 598.7300227000378, "event": "show fixation"}, {"time": 599.2423856998794, "event": "show cue"}, {"time": 600.754466699902, "event": "show fixation"}, {"time": 601.2818207000382, "event": "start sound"}, {"time": 601.2823932999745, "event": "start decision window"}, {"time": 601.6922730000224, "event": "response"}, {"time": 604.1145224999636, "event": "done"}]}, {"trial": {"cue_direction": "right", "stimulus": "A|A", "correct_response": "f", "left_cue_condition": 0.3, "stimA_condition": 0.9, "response": "f", "performance": "Correct", "rt": 2.8083996002096683}, "events": [{"time": 604.1368799998891, "event": "initialize", "status": "ok"}, {"time": 604.1373709999025, "event": "start recording"}, {"time": 604.2481553999241, "event": "start"}, {"time": 604.2602226999588, "event": "show fixation"}, {"time": 604.7692197998986, "event": "show cue"}, {"time": 606.2871691000182, "event": "show fixation"}, {"time": 606.8114473999012, "event": "start sound"}, {"time": 606.8119920999743, "event": "start decision window"}, {"time": 607.1802729000337, "event": "response"}, {"time": 609.620404999936, "event": "done"}]}, {"trial": {"cue_direction": "right", "stimulus": "A|A", "correct_response": "f", "left_cue_condition": 0.3, "stimA_condition": 0.9, "response": "f", "performance": "Correct", "rt": 2.722529900027439}, "events": [{"time": 609.6466572999489, "event": "initialize", "status": "ok"}, {"time": 609.6469274000265, "event": "start recording"}, {"time": 609.7625913999509, "event": "start"}, {"time": 609.7666155998595, "event": "show fixation"}, {"time": 610.2731510999147, "event": "show cue"}, {"time": 611.7905552999582, "event": "show fixation"}, {"time": 612.3112706998363, "event": "start sound"}, {"time": 612.3118184998166, "event": "start decision window"}, {"time": 612.7642820999026, "event": "response"}, {"time": 615.0343756999355, "event": "done"}]}, {"trial": {"cue_direction": "right", "stimulus": "A|A", "correct_response": "f", "left_cue_condition": 0.3, "stimA_condition": 0.9, "response": "f", "performance": "Correct", "rt": 2.1810973999090493}, "events": [{"time": 615.0473084999248, "event": "initialize", "status": "ok"}, {"time": 615.0475906999782, "event": "start recording"}, {"time": 615.1751412998419, "event": "start"}, {"time": 615.1819350000005, "event": "show fixation"}, {"time": 615.694866299862, "event": "show cue"}, {"time": 617.2158351000398, "event": "show fixation"}, {"time": 617.7520659000147, "event": "start sound"}, {"time": 617.7527558000293, "event": "start decision window"}, {"time": 618.204355099937, "event": "response"}, {"time": 619.9338710999582, "event": "done"}]}, {"trial": {"cue_direction": "left", "stimulus": "A|A", "correct_response": "f", "left_cue_condition": 0.3, "stimA_condition": 0.9, "response": "f", "performance": "Correct", "rt": 2.1715580001473427}, "events": [{"time": 619.96221339982, "event": "initialize", "status": "ok"}, {"time": 619.9626802999992, "event": "start recording"}, {"time": 620.074503300013, "event": "start"}, {"time": 620.0779434998985, "event": "show fixation"}, {"time": 620.5918437000364, "event": "show cue"}, {"time": 622.1117864998523, "event": "show fixation"}, {"time": 622.6425703999121, "event": "start sound"}, {"time": 622.6432588000316, "event": "start decision window"}, {"time": 623.2123265999835, "event": "response"}, {"time": 624.8148411000147, "event": "done"}]}, {"trial": {"cue_direction": "left", "stimulus": "A|A", "correct_response": "f", "left_cue_condition": 0.3, "stimA_condition": 0.9, "response": "f", "performance": "Correct", "rt": 2.1916384999640286}, "events": [{"time": 624.8438114000019, "event": "initialize", "status": "ok"}, {"time": 624.8442809998523, "event": "start recording"}, {"time": 624.9565524999052, "event": "start"}, {"time": 624.9653158998117, "event": "show fixation"}, {"time": 625.4812207999639, "event": "show cue"}, {"time": 627.0004376999568, "event": "show fixation"}, {"time": 627.5365905000363, "event": "start sound"}, {"time": 627.5373847999144, "event": "start decision window"}, {"time": 627.900260000024, "event": "response"}, {"time": 629.7290325998329, "event": "done"}]}, {"trial": {"cue_direction": "right", "stimulus": "A|A", "correct_response": "f", "left_cue_condition": 0.9, "stimA_condition": 0.5, "response": "f", "performance": "Correct", "rt": 3.16928520007059}, "events": [{"time": 663.6931896999013, "event": "initialize", "status": "ok"}, {"time": 663.6933684998658, "event": "start recording"}, {"time": 663.8037204998545, "event": "start"}, {"time": 663.8193653000053, "event": "show fixation"}, {"time": 664.3324529998936, "event": "show cue"}, {"time": 665.8531304998323, "event": "show fixation"}, {"time": 666.3764976998791, "event": "start sound"}, {"time": 666.3770834000316, "event": "start decision window"}, {"time": 667.2762436999474, "event": "response"}, {"time": 669.5464091999456, "event": "done"}]}, {"trial": {"cue_direction": "left", "stimulus": "B|A", "correct_response": "j", "left_cue_condition": 0.9, "stimA_condition": 0.5, "response": "j", "performance": "Correct", "rt": 2.4920991000253707}, "events": [{"time": 669.5629671998322, "event": "initialize", "status": "ok"}, {"time": 669.5631523998454, "event": "start recording"}, {"time": 669.6734335999936, "event": "start"}, {"time": 669.6850341998506, "event": "show fixation"}, {"time": 670.1950772998389, "event": "show cue"}, {"time": 671.722195699811, "event": "show fixation"}, {"time": 672.2527526000049, "event": "start sound"}, {"time": 672.2532726998907, "event": "start decision window"}, {"time": 672.8042569998652, "event": "response"}, {"time": 674.7453987998888, "event": "done"}]}, {"trial": {"cue_direction": "left", "stimulus": "B|B", "correct_response": "j", "left_cue_condition": 0.9, "stimA_condition": 0.5, "response": "j", "performance": "Correct", "rt": 2.8627879000268877}, "events": [{"time": 674.7619350999594, "event": "initialize", "status": "ok"}, {"time": 674.7624066998251, "event": "start recording"}, {"time": 674.8874268999789, "event": "start"}, {"time": 674.8938988000154, "event": "show fixation"}, {"time": 675.4020181000233, "event": "show cue"}, {"time": 676.9117111999076, "event": "show fixation"}, {"time": 677.4362221998163, "event": "start sound"}, {"time": 677.4368374999613, "event": "start decision window"}, {"time": 677.9082747998182, "event": "response"}, {"time": 680.299663099926, "event": "done"}]}, {"trial": {"cue_direction": "left", "stimulus": "B|B", "correct_response": "j", "left_cue_condition": 0.9, "stimA_condition": 0.5, "response": "j", "performance": "Correct", "rt": 2.5963830000255257}, "events": [{"time": 680.3266598000191, "event": "initialize", "status": "ok"}, {"time": 680.3271304999944, "event": "start recording"}, {"time": 680.4438358999323, "event": "start"}, {"time": 680.4467890998349, "event": "show fixation"}, {"time": 680.9581353999674, "event": "show cue"}, {"time": 682.4784396998584, "event": "show fixation"}, {"time": 683.0050168000162, "event": "start sound"}, {"time": 683.0056890000124, "event": "start decision window"}, {"time": 683.4282281999476, "event": "response"}, {"time": 685.6020776999649, "event": "done"}]}, {"trial": {"cue_direction": "left", "stimulus": "A|A", "correct_response": "f", "left_cue_condition": 0.9, "stimA_condition": 0.5, "response": "f", "performance": "Correct", "rt": 2.736468099988997}, "events": [{"time": 685.6229313998483, "event": "initialize", "status": "ok"}, {"time": 685.6231245000381, "event": "start recording"}, {"time": 685.7437711998355, "event": "start"}, {"time": 685.7499525998719, "event": "show fixation"}, {"time": 686.2601472998504, "event": "show cue"}, {"time": 687.7792040999047, "event": "show fixation"}, {"time": 688.3054972998798, "event": "start sound"}, {"time": 688.306145099923, "event": "start decision window"}, {"time": 688.9482511999086, "event": "response"}, {"time": 691.0426491999533, "event": "done"}]}, {"trial": {"cue_direction": "right", "stimulus": "A|B", "correct_response": "j", "left_cue_condition": 0.9, "stimA_condition": 0.5, "response": "j", "performance": "Correct", "rt": 2.8387098000384867}, "events": [{"time": 691.0585200998466, "event": "initialize", "status": "ok"}, {"time": 691.0588148999959, "event": "start recording"}, {"time": 691.1862826999277, "event": "start"}, {"time": 691.1926787998527, "event": "show fixation"}, {"time": 691.7005916000344, "event": "show cue"}, {"time": 693.2286249999888, "event": "show fixation"}, {"time": 693.7477794999722, "event": "start sound"}, {"time": 693.7485425998457, "event": "start decision window"}, {"time": 694.8602980999276, "event": "response"}, {"time": 696.587298899889, "event": "done"}]}, {"trial": {"cue_direction": "left", "stimulus": "A|A", "correct_response": "f", "left_cue_condition": 0.9, "stimA_condition": 0.5, "response": "f", "performance": "Correct", "rt": 2.5841845001559705}, "events": [{"time": 696.6100616999902, "event": "initialize", "status": "ok"}, {"time": 696.6106955998112, "event": "start recording"}, {"time": 696.7312659998424, "event": "start"}, {"time": 696.7375278000254, "event": "show fixation"}, {"time": 697.255273199873, "event": "show cue"}, {"time": 698.7708890999202, "event": "show fixation"}, {"time": 699.3083393999841, "event": "start sound"}, {"time": 699.3090168000199, "event": "start decision window"}, {"time": 700.0603277999908, "event": "response"}, {"time": 701.89320699987, "event": "done"}]}, {"trial": {"cue_direction": "left", "stimulus": "B|B", "correct_response": "j", "left_cue_condition": 0.9, "stimA_condition": 0.5, "response": "j", "performance": "Correct", "rt": 2.3780340999364853}, "events": [{"time": 701.9166969999205, "event": "initialize", "status": "ok"}, {"time": 701.9168995998334, "event": "start recording"}, {"time": 702.0280472999439, "event": "start"}, {"time": 702.0307433998678, "event": "show fixation"}, {"time": 702.5396349998191, "event": "show cue"}, {"time": 704.0572645999491, "event": "show fixation"}, {"time": 704.5835315999575, "event": "start sound"}, {"time": 704.584246999817, "event": "start decision window"}, {"time": 705.2042445999105, "event": "response"}, {"time": 706.9622853000183, "event": "done"}]}, {"trial": {"cue_direction": "left", "stimulus": "B|A", "correct_response": "j", "left_cue_condition": 0.9, "stimA_condition": 0.5, "response": "j", "performance": "Correct", "rt": 3.1155842000152916}, "events": [{"time": 706.9829286998138, "event": "initialize", "status": "ok"}, {"time": 706.9830881999806, "event": "start recording"}, {"time": 707.1022350999992, "event": "start"}, {"time": 707.1135456999764, "event": "show fixation"}, {"time": 707.6297706998885, "event": "show cue"}, {"time": 709.1535981998313, "event": "show fixation"}, {"time": 709.6878492999822, "event": "start sound"}, {"time": 709.6885394998826, "event": "start decision window"}, {"time": 710.5802025999874, "event": "response"}, {"time": 712.8041602999438, "event": "done"}]}, {"trial": {"cue_direction": "left", "stimulus": "A|A", "correct_response": "f", "left_cue_condition": 0.9, "stimA_condition": 0.5, "response": "f", "performance": "Correct", "rt": 3.1402503999415785}, "events": [{"time": 712.8348964999896, "event": "initialize", "status": "ok"}, {"time": 712.8355437999126, "event": "start recording"}, {"time": 712.9775125999004, "event": "start"}, {"time": 712.9894321998581, "event": "show fixation"}, {"time": 713.5027061998844, "event": "show cue"}, {"time": 715.0185240998399, "event": "show fixation"}, {"time": 715.5578439999372, "event": "start sound"}, {"time": 715.5586095999461, "event": "start decision window"}, {"time": 716.3402735998388, "event": "response"}, {"time": 718.6988731999882, "event": "done"}]}, {"trial": {"cue_direction": "left", "stimulus": "B|A", "correct_response": "j", "left_cue_condition": 0.9, "stimA_condition": 0.5, "response": "f", "performance": "Incorrect", "rt": 4.857536299852654}, "events": [{"time": 718.7151028998196, "event": "initialize", "status": "ok"}, {"time": 718.7154268999584, "event": "start recording"}, {"time": 718.8421702999622, "event": "start"}, {"time": 718.84521639999, "event": "show fixation"}, {"time": 719.3522177999839, "event": "show cue"}, {"time": 720.867124499986, "event": "show fixation"}, {"time": 721.3920654999092, "event": "start sound"}, {"time": 721.3925920999609, "event": "start decision window"}, {"time": 723.9642000999302, "event": "response"}, {"time": 726.250154600013, "event": "done"}]}, {"trial": {"cue_direction": "left", "stimulus": "B|A", "correct_response": "j", "left_cue_condition": 0.9, "stimA_condition": 0.5, "response": "j", "performance": "Correct", "rt": 2.882814100012183}, "events": [{"time": 726.2775663998909, "event": "initialize", "status": "ok"}, {"time": 726.2779987000395, "event": "start recording"}, {"time": 726.3892479999922, "event": "start"}, {"time": 726.3967108998913, "event": "show fixation"}, {"time": 726.9082047999837, "event": "show cue"}, {"time": 728.4298876000103, "event": "show fixation"}, {"time": 728.9606357999146, "event": "start sound"}, {"time": 728.9613430998288, "event": "start decision window"}, {"time": 730.2842041999102, "event": "response"}, {"time": 731.8441690998152, "event": "done"}]}, {"trial": {"cue_direction": "left", "stimulus": "B|A", "correct_response": "j", "left_cue_condition": 0.9, "stimA_condition": 0.5, "response": "j", "performance": "Correct", "rt": 3.2631061000283808}, "events": [{"time": 731.8591845999472, "event": "initialize", "status": "ok"}, {"time": 731.859443299938, "event": "start recording"}, {"time": 731.9701435999013, "event": "start"}, {"time": 731.9792149998248, "event": "show fixation"}, {"time": 732.4908811999485, "event": "show cue"}, {"time": 734.0131947998889, "event": "show fixation"}, {"time": 734.5377322998829, "event": "start sound"}, {"time": 734.5383210999426, "event": "start decision window"}, {"time": 735.468210699968, "event": "response"}, {"time": 737.8014375998173, "event": "done"}]}, {"trial": {"cue_direction": "left", "stimulus": "B|B", "correct_response": "j", "left_cue_condition": 0.9, "stimA_condition": 0.5, "response": "j", "performance": "Correct", "rt": 2.555856800172478}, "events": [{"time": 737.8223975999281, "event": "initialize", "status": "ok"}, {"time": 737.822556699859, "event": "start recording"}, {"time": 737.9332840999123, "event": "start"}, {"time": 737.9396531998646, "event": "show fixation"}, {"time": 738.4473973999266, "event": "show cue"}, {"time": 739.9584244999569, "event": "show fixation"}, {"time": 740.4898802998941, "event": "start sound"}, {"time": 740.4904425998684, "event": "start decision window"}, {"time": 741.2365810999181, "event": "response"}, {"time": 743.0463076999877, "event": "done"}]}, {"trial": {"cue_direction": "left", "stimulus": "B|A", "correct_response": "j", "left_cue_condition": 0.9, "stimA_condition": 0.5, "response": "j", "performance": "Correct", "rt": 3.5526432001497597}, "events": [{"time": 743.0687924998347, "event": "initialize", "status": "ok"}, {"time": 743.0689604999498, "event": "start recording"}, {"time": 743.1793886998203, "event": "start"}, {"time": 743.1834135998506, "event": "show fixation"}, {"time": 743.6918820999563, "event": "show cue"}, {"time": 745.2090499999467, "event": "show fixation"}, {"time": 745.7463042000309, "event": "start sound"}, {"time": 745.7470719998237, "event": "start decision window"}, {"time": 746.868265699828, "event": "response"}, {"time": 749.2997267998289, "event": "done"}]}, {"trial": {"cue_direction": "left", "stimulus": "B|A", "correct_response": "j", "left_cue_condition": 0.9, "stimA_condition": 0.5, "response": "j", "performance": "Correct", "rt": 3.0575089000631124}, "events": [{"time": 749.3190023999196, "event": "initialize", "status": "ok"}, {"time": 749.3193210999016, "event": "start recording"}, {"time": 749.4302619998343, "event": "start"}, {"time": 749.4413417999167, "event": "show fixation"}, {"time": 749.9512002998963, "event": "show cue"}, {"time": 751.472638499923, "event": "show fixation"}, {"time": 751.9984096998814, "event": "start sound"}, {"time": 751.9990095999092, "event": "start decision window"}, {"time": 753.028261799831, "event": "response"}, {"time": 755.0565332998522, "event": "done"}]}, {"trial": {"cue_direction": "left", "stimulus": "A|B", "correct_response": "f", "left_cue_condition": 0.9, "stimA_condition": 0.5, "response": "f", "performance": "Correct", "rt": 3.1226977999322116}, "events": [{"time": 755.0839153998531, "event": "initialize", "status": "ok"}, {"time": 755.0841985999141, "event": "start recording"}, {"time": 755.1964049998205, "event": "start"}, {"time": 755.1992746999022, "event": "show fixation"}, {"time": 755.7081159998197, "event": "show cue"}, {"time": 757.220727100037, "event": "show fixation"}, {"time": 757.7459550998174, "event": "start sound"}, {"time": 757.7465384998359, "event": "start decision window"}, {"time": 758.5561951999553, "event": "response"}, {"time": 760.8692433999386, "event": "done"}]}, {"trial": {"cue_direction": "right", "stimulus": "A|A", "correct_response": "f", "left_cue_condition": 0.9, "stimA_condition": 0.5, "response": "f", "performance": "Correct", "rt": 2.610070299822837}, "events": [{"time": 760.8817326000426, "event": "initialize", "status": "ok"}, {"time": 760.881911000004, "event": "start recording"}, {"time": 760.9928951000329, "event": "start"}, {"time": 761.0001313998364, "event": "show fixation"}, {"time": 761.5091993999667, "event": "show cue"}, {"time": 763.0394798000343, "event": "show fixation"}, {"time": 763.5676686998922, "event": "start sound"}, {"time": 763.5683367999736, "event": "start decision window"}, {"time": 764.6202406999655, "event": "response"}, {"time": 766.1784333998803, "event": "done"}]}, {"trial": {"cue_direction": "left", "stimulus": "B|B", "correct_response": "j", "left_cue_condition": 0.9, "stimA_condition": 0.5, "response": "j", "performance": "Correct", "rt": 2.361363400006667}, "events": [{"time": 766.2007529998664, "event": "initialize", "status": "ok"}, {"time": 766.2012318000197, "event": "start recording"}, {"time": 766.3220543998759, "event": "start"}, {"time": 766.3302911999635, "event": "show fixation"}, {"time": 766.8409412999172, "event": "show cue"}, {"time": 768.3660112998914, "event": "show fixation"}, {"time": 768.8983361998107, "event": "start sound"}, {"time": 768.8989323999267, "event": "start decision window"}, {"time": 769.540202499833, "event": "response"}, {"time": 771.2603329999838, "event": "done"}]}, {"trial": {"cue_direction": "left", "stimulus": "A|A", "correct_response": "f", "left_cue_condition": 0.9, "stimA_condition": 0.5, "response": "j", "performance": "Incorrect", "rt": 2.980821100063622}, "events": [{"time": 771.2835052998271, "event": "initialize", "status": "ok"}, {"time": 771.2838898999617, "event": "start recording"}, {"time": 771.3948798000347, "event": "start"}, {"time": 771.4075702999253, "event": "show fixation"}, {"time": 771.9185283998959, "event": "show cue"}, {"time": 773.4395184000023, "event": "show fixation"}, {"time": 773.9830983998254, "event": "start sound"}, {"time": 773.983778399881, "event": "start decision window"}, {"time": 774.6281653000042, "event": "response"}, {"time": 776.9646105999127, "event": "done"}]}, {"trial": {"cue_direction": "left", "stimulus": "B|A", "correct_response": "j", "left_cue_condition": 0.9, "stimA_condition": 0.5, "response": "j", "performance": "Correct", "rt": 3.89976659999229}, "events": [{"time": 776.9910550999921, "event": "initialize", "status": "ok"}, {"time": 776.991227200022, "event": "start recording"}, {"time": 777.1024086999241, "event": "start"}, {"time": 777.1117644999176, "event": "show fixation"}, {"time": 777.6274210999254, "event": "show cue"}, {"time": 779.1479123998433, "event": "show fixation"}, {"time": 779.6763567999005, "event": "start sound"}, {"time": 779.6769683999009, "event": "start decision window"}, {"time": 781.2282553999685, "event": "response"}, {"time": 783.5767631998751, "event": "done"}]}, {"trial": {"cue_direction": "left", "stimulus": "B|A", "correct_response": "j", "left_cue_condition": 0.9, "stimA_condition": 0.5, "response": "j", "performance": "Correct", "rt": 3.3121874001808465}, "events": [{"time": 783.5951816998422, "event": "initialize", "status": "ok"}, {"time": 783.5956572999712, "event": "start recording"}, {"time": 783.7075651998166, "event": "start"}, {"time": 783.7161048999988, "event": "show fixation"}, {"time": 784.2282791999169, "event": "show cue"}, {"time": 785.7496483998839, "event": "show fixation"}, {"time": 786.2740370000247, "event": "start sound"}, {"time": 786.2746456000023, "event": "start decision window"}, {"time": 787.8841909999028, "event": "response"}, {"time": 789.586861499818, "event": "done"}]}, {"trial": {"cue_direction": "left", "stimulus": "A|B", "correct_response": "f", "left_cue_condition": 0.9, "stimA_condition": 0.5, "response": "f", "performance": "Correct", "rt": 2.9848788999952376}, "events": [{"time": 789.6050717998296, "event": "initialize", "status": "ok"}, {"time": 789.6052448998671, "event": "start recording"}, {"time": 789.7158068998251, "event": "start"}, {"time": 789.7249510998372, "event": "show fixation"}, {"time": 790.2363413998391, "event": "show cue"}, {"time": 791.7595086998772, "event": "show fixation"}, {"time": 792.2853257998358, "event": "start sound"}, {"time": 792.2858704999089, "event": "start decision window"}, {"time": 793.6522544999607, "event": "response"}, {"time": 795.2707638000138, "event": "done"}]}, {"trial": {"cue_direction": "left", "stimulus": "A|B", "correct_response": "f", "left_cue_condition": 0.9, "stimA_condition": 0.5, "response": "f", "performance": "Correct", "rt": 2.4492059000767767}, "events": [{"time": 795.2867994999979, "event": "initialize", "status": "ok"}, {"time": 795.2870852998458, "event": "start recording"}, {"time": 795.3991168998182, "event": "start"}, {"time": 795.4094783999026, "event": "show fixation"}, {"time": 795.9227334999014, "event": "show cue"}, {"time": 797.4424105000217, "event": "show fixation"}, {"time": 797.9697916998994, "event": "start sound"}, {"time": 797.9703597000334, "event": "start decision window"}, {"time": 798.4121879998129, "event": "response"}, {"time": 800.4195770998485, "event": "done"}]}, {"trial": {"cue_direction": "left", "stimulus": "A|B", "correct_response": "f", "left_cue_condition": 0.9, "stimA_condition": 0.5, "response": "f", "performance": "Correct", "rt": 2.0073084000032395}, "events": [{"time": 800.4355708998628, "event": "initialize", "status": "ok"}, {"time": 800.4357965998352, "event": "start recording"}, {"time": 800.5588042000309, "event": "start"}, {"time": 800.5702266998123, "event": "show fixation"}, {"time": 801.0840025998186, "event": "show cue"}, {"time": 802.6046812999994, "event": "show fixation"}, {"time": 803.1493008998223, "event": "start sound"}, {"time": 803.1500661999453, "event": "start decision window"}, {"time": 803.5322379998397, "event": "response"}, {"time": 805.1574087999761, "event": "done"}]}, {"trial": {"cue_direction": "left", "stimulus": "B|B", "correct_response": "j", "left_cue_condition": 0.9, "stimA_condition": 0.5, "response": "j", "performance": "Correct", "rt": 2.828743699938059}, "events": [{"time": 805.187573999865, "event": "initialize", "status": "ok"}, {"time": 805.1882433998398, "event": "start recording"}, {"time": 805.3003911999986, "event": "start"}, {"time": 805.313351099845, "event": "show fixation"}, {"time": 805.824894499965, "event": "show cue"}, {"time": 807.3415582999587, "event": "show fixation"}, {"time": 807.8714675998781, "event": "start sound"}, {"time": 807.8721657998394, "event": "start decision window"}, {"time": 808.3401394998655, "event": "response"}, {"time": 810.7009200998582, "event": "done"}]}, {"trial": {"cue_direction": "left", "stimulus": "A|B", "correct_response": "f", "left_cue_condition": 0.9, "stimA_condition": 0.5, "response": "f", "performance": "Correct", "rt": 2.4248295999132097}, "events": [{"time": 810.7158782999031, "event": "initialize", "status": "ok"}, {"time": 810.7161288999487, "event": "start recording"}, {"time": 810.827291399939, "event": "start"}, {"time": 810.830571499886, "event": "show fixation"}, {"time": 811.3453885999043, "event": "show cue"}, {"time": 812.8717697998509, "event": "show fixation"}, {"time": 813.4035097998567, "event": "start sound"}, {"time": 813.4041845998727, "event": "start decision window"}, {"time": 813.852147599915, "event": "response"}, {"time": 815.8290235998575, "event": "done"}]}, {"trial": {"cue_direction": "left", "stimulus": "B|B", "correct_response": "j", "left_cue_condition": 0.9, "stimA_condition": 0.5, "response": "j", "performance": "Correct", "rt": 2.7114417999982834}, "events": [{"time": 815.8474580999464, "event": "initialize", "status": "ok"}, {"time": 815.8476929999888, "event": "start recording"}, {"time": 815.967463699868, "event": "start"}, {"time": 815.9706325998995, "event": "show fixation"}, {"time": 816.4820371000096, "event": "show cue"}, {"time": 818.0070931999944, "event": "show fixation"}, {"time": 818.5394520999398, "event": "start sound"}, {"time": 818.5400389998686, "event": "start decision window"}, {"time": 819.3721395998728, "event": "response"}, {"time": 821.251496899873, "event": "done"}]}, {"trial": {"cue_direction": "right", "stimulus": "B|B", "correct_response": "j", "left_cue_condition": 0.9, "stimA_condition": 0.5, "response": "j", "performance": "Correct", "rt": 2.6571945000905544}, "events": [{"time": 821.2778035998344, "event": "initialize", "status": "ok"}, {"time": 821.2780469998252, "event": "start recording"}, {"time": 821.3896437999792, "event": "start"}, {"time": 821.4009878998622, "event": "show fixation"}, {"time": 821.9093522999901, "event": "show cue"}, {"time": 823.4370297999121, "event": "show fixation"}, {"time": 823.9539597998373, "event": "start sound"}, {"time": 823.954566600034, "event": "start decision window"}, {"time": 824.7481750999577, "event": "response"}, {"time": 826.6117777000181, "event": "done"}]}, {"trial": {"cue_direction": "left", "stimulus": "B|B", "correct_response": "j", "left_cue_condition": 0.9, "stimA_condition": 0.5, "response": "j", "performance": "Correct", "rt": 2.023378200130537}, "events": [{"time": 826.626760300016, "event": "initialize", "status": "ok"}, {"time": 826.6270747999661, "event": "start recording"}, {"time": 826.7380148998927, "event": "start"}, {"time": 826.7449145999271, "event": "show fixation"}, {"time": 827.2536362998653, "event": "show cue"}, {"time": 828.7796377998311, "event": "show fixation"}, {"time": 829.3058386999182, "event": "start sound"}, {"time": 829.3064184999093, "event": "start decision window"}, {"time": 829.7561804999132, "event": "response"}, {"time": 831.3298076000065, "event": "done"}]}, {"trial": {"cue_direction": "left", "stimulus": "A|A", "correct_response": "f", "left_cue_condition": 0.9, "stimA_condition": 0.9, "response": "f", "performance": "Correct", "rt": 2.4388180000241846}, "events": [{"time": 866.8263957998715, "event": "initialize", "status": "ok"}, {"time": 866.8266588998958, "event": "start recording"}, {"time": 866.9366833998356, "event": "start"}, {"time": 866.9525015000254, "event": "show fixation"}, {"time": 867.4659333999734, "event": "show cue"}, {"time": 868.9813434998505, "event": "show fixation"}, {"time": 869.5232734999154, "event": "start sound"}, {"time": 869.5242117999587, "event": "start decision window"}, {"time": 869.876184299821, "event": "response"}, {"time": 871.9630390999373, "event": "done"}]}, {"trial": {"cue_direction": "left", "stimulus": "A|A", "correct_response": "f", "left_cue_condition": 0.9, "stimA_condition": 0.9, "response": "f", "performance": "Correct", "rt": 1.992308200104162}, "events": [{"time": 871.977562799817, "event": "initialize", "status": "ok"}, {"time": 871.9777589000296, "event": "start recording"}, {"time": 872.102336099837, "event": "start"}, {"time": 872.1142735998146, "event": "show fixation"}, {"time": 872.6290386000182, "event": "show cue"}, {"time": 874.1467978998553, "event": "show fixation"}, {"time": 874.6736673999112, "event": "start sound"}, {"time": 874.674292499898, "event": "start decision window"}, {"time": 875.0521793998778, "event": "response"}, {"time": 876.6666072998196, "event": "done"}]}, {"trial": {"cue_direction": "left", "stimulus": "A|A", "correct_response": "f", "left_cue_condition": 0.9, "stimA_condition": 0.9, "response": "f", "performance": "Correct", "rt": 2.6569741999264807}, "events": [{"time": 876.6907913000323, "event": "initialize", "status": "ok"}, {"time": 876.6909739000257, "event": "start recording"}, {"time": 876.8057823998388, "event": "start"}, {"time": 876.8173153998796, "event": "show fixation"}, {"time": 877.3281944999471, "event": "show cue"}, {"time": 878.8492907998152, "event": "show fixation"}, {"time": 879.3764794999734, "event": "start sound"}, {"time": 879.3769989998545, "event": "start decision window"}, {"time": 879.8121616998687, "event": "response"}, {"time": 882.0340014998801, "event": "done"}]}, {"trial": {"cue_direction": "right", "stimulus": "A|A", "correct_response": "f", "left_cue_condition": 0.9, "stimA_condition": 0.9, "response": "f", "performance": "Correct", "rt": 2.437849899986759}, "events": [{"time": 882.0596666999627, "event": "initialize", "status": "ok"}, {"time": 882.0601323000155, "event": "start recording"}, {"time": 882.1752601999324, "event": "start"}, {"time": 882.186783199897, "event": "show fixation"}, {"time": 882.7030425998382, "event": "show cue"}, {"time": 884.2345884998795, "event": "show fixation"}, {"time": 884.7722738999873, "event": "start sound"}, {"time": 884.7727685999125, "event": "start decision window"}, {"time": 885.1481216000393, "event": "response"}, {"time": 887.2106345000211, "event": "done"}]}, {"trial": {"cue_direction": "left", "stimulus": "A|A", "correct_response": "f", "left_cue_condition": 0.9, "stimA_condition": 0.9, "response": "f", "performance": "Correct", "rt": 2.296739500015974}, "events": [{"time": 887.2253051998559, "event": "initialize", "status": "ok"}, {"time": 887.2255843000021, "event": "start recording"}, {"time": 887.3496490998659, "event": "start"}, {"time": 887.3609541000333, "event": "show fixation"}, {"time": 887.8705239000265, "event": "show cue"}, {"time": 889.4015707999934, "event": "show fixation"}, {"time": 889.9356084999163, "event": "start sound"}, {"time": 889.936149999965, "event": "start decision window"}, {"time": 890.2761360998265, "event": "response"}, {"time": 892.2329173998442, "event": "done"}]}, {"trial": {"cue_direction": "left", "stimulus": "A|B", "correct_response": "f", "left_cue_condition": 0.9, "stimA_condition": 0.9, "response": "f", "performance": "Correct", "rt": 3.363522700034082}, "events": [{"time": 892.259023899911, "event": "initialize", "status": "ok"}, {"time": 892.2594904999714, "event": "start recording"}, {"time": 892.3703709999099, "event": "start"}, {"time": 892.3781818998978, "event": "show fixation"}, {"time": 892.8890918998513, "event": "show cue"}, {"time": 894.4119420999195, "event": "show fixation"}, {"time": 894.933440499939, "event": "start sound"}, {"time": 894.9340190000366, "event": "start decision window"}, {"time": 896.1001655999571, "event": "response"}, {"time": 898.2975675000343, "event": "done"}]}, {"trial": {"cue_direction": "left", "stimulus": "A|A", "correct_response": "f", "left_cue_condition": 0.9, "stimA_condition": 0.9, "response": "f", "performance": "Correct", "rt": 2.6903384998440742}, "events": [{"time": 898.3218071998563, "event": "initialize", "status": "ok"}, {"time": 898.3222684999928, "event": "start recording"}, {"time": 898.4337041999679, "event": "start"}, {"time": 898.4419443998486, "event": "show fixation"}, {"time": 898.9517820999026, "event": "show cue"}, {"time": 900.4773881000001, "event": "show fixation"}, {"time": 901.0019187999424, "event": "start sound"}, {"time": 901.002609899966, "event": "start decision window"}, {"time": 901.4521146998741, "event": "response"}, {"time": 903.6929525998421, "event": "done"}]}, {"trial": {"cue_direction": "left", "stimulus": "A|A", "correct_response": "f", "left_cue_condition": 0.9, "stimA_condition": 0.9, "response": "f", "performance": "Correct", "rt": 2.7346574999392033}, "events": [{"time": 903.7171479000244, "event": "initialize", "status": "ok"}, {"time": 903.7173609999008, "event": "start recording"}, {"time": 903.8320732000284, "event": "start"}, {"time": 903.8431517998688, "event": "show fixation"}, {"time": 904.3581594999414, "event": "show cue"}, {"time": 905.8707357000094, "event": "show fixation"}, {"time": 906.4096550999675, "event": "start sound"}, {"time": 906.4103447999805, "event": "start decision window"}, {"time": 906.7481604998466, "event": "response"}, {"time": 909.1450070999563, "event": "done"}]}, {"trial": {"cue_direction": "left", "stimulus": "A|A", "correct_response": "f", "left_cue_condition": 0.9, "stimA_condition": 0.9, "response": "f", "performance": "Correct", "rt": 1.9012692999094725}, "events": [{"time": 909.1661808998324, "event": "initialize", "status": "ok"}, {"time": 909.1663603000343, "event": "start recording"}, {"time": 909.2840082999319, "event": "start"}, {"time": 909.2900262000039, "event": "show fixation"}, {"time": 909.7978560999036, "event": "show cue"}, {"time": 911.3211660999805, "event": "show fixation"}, {"time": 911.8457502999809, "event": "start sound"}, {"time": 911.846292299917, "event": "start decision window"}, {"time": 912.1561610999051, "event": "response"}, {"time": 913.747600399889, "event": "done"}]}, {"trial": {"cue_direction": "left", "stimulus": "A|A", "correct_response": "f", "left_cue_condition": 0.9, "stimA_condition": 0.9, "response": "f", "performance": "Correct", "rt": 2.3040170001331717}, "events": [{"time": 913.769735599868, "event": "initialize", "status": "ok"}, {"time": 913.7700986999553, "event": "start recording"}, {"time": 913.8811379999388, "event": "start"}, {"time": 913.8850575999822, "event": "show fixation"}, {"time": 914.3940983999055, "event": "show cue"}, {"time": 915.9189204999711, "event": "show fixation"}, {"time": 916.4494020999409, "event": "start sound"}, {"time": 916.4500934998505, "event": "start decision window"}, {"time": 916.8681498998776, "event": "response"}, {"time": 918.7541276998818, "event": "done"}]}, {"trial": {"cue_direction": "left", "stimulus": "A|A", "correct_response": "f", "left_cue_condition": 0.9, "stimA_condition": 0.9, "response": "f", "performance": "Correct", "rt": 2.234043400036171}, "events": [{"time": 918.7805528999306, "event": "initialize", "status": "ok"}, {"time": 918.7808912999462, "event": "start recording"}, {"time": 918.8968086999375, "event": "start"}, {"time": 918.908102999907, "event": "show fixation"}, {"time": 919.4200640998315, "event": "show cue"}, {"time": 920.9354490998667, "event": "show fixation"}, {"time": 921.4608828998171, "event": "start sound"}, {"time": 921.4615561999381, "event": "start decision window"}, {"time": 921.7480865998659, "event": "response"}, {"time": 923.695641099941, "event": "done"}]}, {"trial": {"cue_direction": "left", "stimulus": "B|A", "correct_response": "j", "left_cue_condition": 0.9, "stimA_condition": 0.9, "response": "j", "performance": "Correct", "rt": 2.6593505998607725}, "events": [{"time": 923.7147726998664, "event": "initialize", "status":