{"config_number": 0, "parameters": {"points_per_cent": 2, "time_limit": 5, "correct_responses": ["f", "j"], "combination_num": 8, "gaze_tolerance": 1.5, "triggers": "<triggers.Triggers object at 0x159529070>"}, "main_data": [{"trial": {"cue_direction": "right", "stimulus": "A|A", "correct_response": "f", "left_cue_condition": 0.3, "stimA_condition": 0.9, "response": "f", "performance": "Correct", "rt": 3.232138291816227}, "events": [{"time": 249.9720777083421, "event": "initialize", "status": "ok"}, {"time": 249.97234749991912, "event": "start recording"}, {"time": 250.18819395836908, "event": "start"}, {"time": 250.1969577500131, "event": "show fixation"}, {"time": 250.70149674999993, "event": "show cue"}, {"time": 252.20613620837685, "event": "show fixation"}, {"time": 252.77008766657673, "event": "start sound"}, {"time": 252.7703964165412, "event": "start decision window"}, {"time": 254.06249937496614, "event": "response"}, {"time": 256.0025352083612, "event": "done"}]}, {"trial": {"cue_direction": "left", "stimulus": "A|B", "correct_response": "f", "left_cue_condition": 0.3, "stimA_condition": 0.9, "response": "f", "performance": "Correct", "rt": 4.1224157916149125}, "events": [{"time": 256.0166300415294, "event": "initialize", "status": "ok"}, {"time": 256.0167059582891, "event": "start recording"}, {"time": 256.2532652915688, "event": "start"}, {"time": 256.25993162498344, "event": "show fixation"}, {"time": 256.76535033329856, "event": "show cue"}, {"time": 258.2704134165542, "event": "show fixation"}, {"time": 258.7780635416275, "event": "start sound"}, {"time": 258.7782752083149, "event": "start decision window"}, {"time": 260.870299916598, "event": "response"}, {"time": 262.90069291659165, "event": "done"}]}, {"trial": {"cue_direction": "right", "stimulus": "A|A", "correct_response": "f", "left_cue_condition": 0.3, "stimA_condition": 0.9, "response": "f", "performance": "Correct", "rt": 2.9446436666185036}, "events": [{"time": 262.914713999955, "event": "initialize", "status": "ok"}, {"time": 262.914791374933, "event": "start recording"}, {"time": 263.15550395834725, "event": "start"}, {"time": 263.1627949165413, "event": "show fixation"}, {"time": 263.66837791656144, "event": "show cue"}, {"time": 265.17320033337455, "event": "show fixation"}, {"time": 265.6809705415508, "event": "start sound"}, {"time": 265.68116933328565, "event": "start decision window"}, {"time": 266.4705639166059, "event": "response"}, {"time": 268.62581537500955, "event": "done"}]}, {"trial": {"cue_direction": "left", "stimulus": "A|A", "correct_response": "f", "left_cue_condition": 0.3, "stimA_condition": 0.9, "response": "f", "performance": "Correct", "rt": 3.4103627916192636}, "events": [{"time": 268.6396827499848, "event": "initialize", "status": "ok"}, {"time": 268.63975550001487, "event": "start recording"}, {"time": 268.87839149998035, "event": "start"}, {"time": 268.88343091658317, "event": "show fixation"}, {"time": 269.38872524991166, "event": "show cue"}, {"time": 270.8930627083173, "event": "show fixation"}, {"time": 271.4025711666327, "event": "start sound"}, {"time": 271.40277537493967, "event": "start decision window"}, {"time": 272.74252079159487, "event": "response"}, {"time": 274.8131400415441, "event": "done"}]}, {"trial": {"cue_direction": "left", "stimulus": "A|A", "correct_response": "f", "left_cue_condition": 0.3, "stimA_condition": 0.9, "response": "f", "performance": "Correct", "rt": 2.8854468332137913}, "events": [{"time": 274.82659812492784, "event": "initialize", "status": "ok"}, {"time": 274.8266685415292, "event": "start recording"}, {"time": 275.06548483332153, "event": "start"}, {"time": 275.0728923333809, "event": "show fixation"}, {"time": 275.5784378333483, "event": "show cue"}, {"time": 277.0837383749895, "event": "show fixation"}, {"time": 277.59480495832395, "event": "start sound"}, {"time": 277.59500116657, "event": "start decision window"}, {"time": 278.28670850000344, "event": "response"}, {"time": 280.4804498333251, "event": "done"}]}, {"trial": {"cue_direction": "right", "stimulus": "B|A", "correct_response": "f", "left_cue_condition": 0.3, "stimA_condition": 0.9, "response": "f", "performance": "Correct", "rt": 3.4055375832831487}, "events": [{"time": 280.49391404155176, "event": "initialize", "status": "ok"}, {"time": 280.4939887499204, "event": "start recording"}, {"time": 280.7033953749342, "event": "start"}, {"time": 280.70853974996135, "event": "show fixation"}, {"time": 281.21348191658035, "event": "show cue"}, {"time": 282.71774654160254, "event": "show fixation"}, {"time": 283.2274003333878, "event": "start sound"}, {"time": 283.2276814165525, "event": "start decision window"}, {"time": 284.49465920834336, "event": "response"}, {"time": 286.633220833377, "event": "done"}]}, {"trial": {"cue_direction": "left", "stimulus": "B|A", "correct_response": "j", "left_cue_condition": 0.3, "stimA_condition": 0.9, "response": "j", "performance": "Correct", "rt": 3.6144952500471845}, "events": [{"time": 286.64663279161323, "event": "initialize", "status": "ok"}, {"time": 286.646691083326, "event": "start recording"}, {"time": 286.88537604163866, "event": "start"}, {"time": 286.89267895836383, "event": "show fixation"}, {"time": 287.3982118333224, "event": "show cue"}, {"time": 288.9031439166283, "event": "show fixation"}, {"time": 289.4107034999179, "event": "start sound"}, {"time": 289.410930041573, "event": "start decision window"}, {"time": 291.14250633330084, "event": "response"}, {"time": 293.0254271249287, "event": "done"}]}, {"trial": {"cue_direction": "left", "stimulus": "A|A", "correct_response": "f", "left_cue_condition": 0.3, "stimA_condition": 0.9, "response": "f", "performance": "Correct", "rt": 3.8301667500054464}, "events": [{"time": 293.03861733328085, "event": "initialize", "status": "ok"}, {"time": 293.03867891663685, "event": "start recording"}, {"time": 293.27330179163255, "event": "start"}, {"time": 293.28018204157706, "event": "show fixation"}, {"time": 293.7856737499824, "event": "show cue"}, {"time": 295.2904976665741, "event": "show fixation"}, {"time": 295.79853379155975, "event": "start sound"}, {"time": 295.79879229154903, "event": "start decision window"}, {"time": 297.806396583328, "event": "response"}, {"time": 299.6289616249269, "event": "done"}]}, {"trial": {"cue_direction": "right", "stimulus": "A|A", "correct_response": "f", "left_cue_condition": 0.3, "stimA_condition": 0.9, "response": "f", "performance": "Correct", "rt": 3.4176014168187976}, "events": [{"time": 299.64190162497107, "event": "initialize", "status": "ok"}, {"time": 299.64196762500796, "event": "start recording"}, {"time": 299.8828991249902, "event": "start"}, {"time": 299.89026566653047, "event": "show fixation"}, {"time": 300.39466179162264, "event": "show cue"}, {"time": 301.89879412495065, "event": "show fixation"}, {"time": 302.4064046249259, "event": "start sound"}, {"time": 302.40660141652916, "event": "start decision window"}, {"time": 303.63867404160555, "event": "response"}, {"time": 305.82420495839324, "event": "done"}]}, {"trial": {"cue_direction": "left", "stimulus": "A|B", "correct_response": "f", "left_cue_condition": 0.3, "stimA_condition": 0.9, "response": "f", "performance": "Correct", "rt": 2.44321970816236}, "events": [{"time": 305.8370689583244, "event": "initialize", "status": "ok"}, {"time": 305.83713037497364, "event": "start recording"}, {"time": 306.071671249927, "event": "start"}, {"time": 306.07771808328107, "event": "show fixation"}, {"time": 306.5826585832983, "event": "show cue"}, {"time": 308.08812016656157, "event": "show fixation"}, {"time": 308.5956948333187, "event": "start sound"}, {"time": 308.59589316661004, "event": "start decision window"}, {"time": 309.50283212494105, "event": "response"}, {"time": 311.03911512496416, "event": "done"}]}, {"trial": {"cue_direction": "right", "stimulus": "A|A", "correct_response": "f", "left_cue_condition": 0.3, "stimA_condition": 0.9, "response": "f", "performance": "Correct", "rt": 2.702182708424516}, "events": [{"time": 311.05231591663323, "event": "initialize", "status": "ok"}, {"time": 311.0523699999321, "event": "start recording"}, {"time": 311.29534295829944, "event": "start"}, {"time": 311.30297620838974, "event": "show fixation"}, {"time": 311.80837445834186, "event": "show cue"}, {"time": 313.3128709999146, "event": "show fixation"}, {"time": 313.82071029162034, "event": "start sound"}, {"time": 313.8209558749804, "event": "start decision window"}, {"time": 314.72656179161277, "event": "response"}, {"time": 316.5231407500105, "event": "done"}]}, {"trial": {"cue_direction": "right", "stimulus": "A|B", "correct_response": "j", "left_cue_condition": 0.3, "stimA_condition": 0.9, "response": "j", "performance": "Correct", "rt": 2.6269353750394657}, "events": [{"time": 316.53609395830426, "event": "initialize", "status": "ok"}, {"time": 316.5361536249984, "event": "start recording"}, {"time": 316.77816062490456, "event": "start"}, {"time": 316.78556904161815, "event": "show fixation"}, {"time": 317.29093579156324, "event": "show cue"}, {"time": 318.7961167083122, "event": "show fixation"}, {"time": 319.30394512496423, "event": "start sound"}, {"time": 319.30414920835756, "event": "start decision window"}, {"time": 320.3430328749819, "event": "response"}, {"time": 321.931088458281, "event": "done"}]}, {"trial": {"cue_direction": "right", "stimulus": "A|A", "correct_response": "f", "left_cue_condition": 0.3, "stimA_condition": 0.9, "response": "f", "performance": "Correct", "rt": 2.3200723332120106}, "events": [{"time": 321.9443717915565, "event": "initialize", "status": "ok"}, {"time": 321.9444377083564, "event": "start recording"}, {"time": 322.183134541614, "event": "start"}, {"time": 322.1891084999079, "event": "show fixation"}, {"time": 322.69393904157914, "event": "show cue"}, {"time": 324.1982237499906, "event": "show fixation"}, {"time": 324.70603729155846, "event": "start sound"}, {"time": 324.7062819165876, "event": "start decision window"}, {"time": 325.29505287494976, "event": "response"}, {"time": 327.02635574992746, "event": "done"}]}, {"trial": {"cue_direction": "left", "stimulus": "A|A", "correct_response": "f", "left_cue_condition": 0.3, "stimA_condition": 0.9, "response": "f", "performance": "Correct", "rt": 2.9917957083089277}, "events": [{"time": 327.03990091662854, "event": "initialize", "status": "ok"}, {"time": 327.03996762493625, "event": "start recording"}, {"time": 327.2803780415561, "event": "start"}, {"time": 327.2878118333174, "event": "show fixation"}, {"time": 327.7930456249742, "event": "show cue"}, {"time": 329.29939895833377, "event": "show fixation"}, {"time": 329.81692100001965, "event": "start sound"}, {"time": 329.81712508329656, "event": "start decision window"}, {"time": 330.75918779161293, "event": "response"}, {"time": 332.80892400001176, "event": "done"}]}, {"trial": {"cue_direction": "right", "stimulus": "A|A", "correct_response": "f", "left_cue_condition": 0.3, "stimA_condition": 0.9, "response": "f", "performance": "Correct", "rt": 3.231890458264388}, "events": [{"time": 332.82258195837494, "event": "initialize", "status": "ok"}, {"time": 332.8226407499751, "event": "start recording"}, {"time": 333.0531495416071, "event": "start"}, {"time": 333.05989420833066, "event": "show fixation"}, {"time": 333.5647832499817, "event": "show cue"}, {"time": 335.0810562915867, "event": "show fixation"}, {"time": 335.5890121249249, "event": "start sound"}, {"time": 335.589344625012, "event": "start decision window"}, {"time": 336.55886529153213, "event": "response"}, {"time": 338.8212374165887, "event": "done"}]}, {"trial": {"cue_direction": "left", "stimulus": "A|A", "correct_response": "f", "left_cue_condition": 0.3, "stimA_condition": 0.9, "response": "f", "performance": "Correct", "rt": 2.254849374992773}, "events": [{"time": 338.83505816652905, "event": "initialize", "status": "ok"}, {"time": 338.83511741657276, "event": "start recording"}, {"time": 339.07641283329576, "event": "start"}, {"time": 339.08316716656554, "event": "show fixation"}, {"time": 339.58865449996665, "event": "show cue"}, {"time": 341.09375508339144, "event": "show fixation"}, {"time": 341.60350666660815, "event": "start sound"}, {"time": 341.60375295835547, "event": "start decision window"}, {"time": 342.1432541249087, "event": "response"}, {"time": 343.8586049999576, "event": "done"}]}, {"trial": {"cue_direction": "right", "stimulus": "A|A", "correct_response": "f", "left_cue_condition": 0.3, "stimA_condition": 0.9, "response": "f", "performance": "Correct", "rt": 2.986889791674912}, "events": [{"time": 343.87102270836476, "event": "initialize", "status": "ok"}, {"time": 343.8710839166306, "event": "start recording"}, {"time": 344.1094549165573, "event": "start"}, {"time": 344.1161075833952, "event": "show fixation"}, {"time": 344.6212882916443, "event": "show cue"}, {"time": 346.1266116666375, "event": "show fixation"}, {"time": 346.63439087499864, "event": "start sound"}, {"time": 346.63462220830843, "event": "start decision window"}, {"time": 347.17537224991247, "event": "response"}, {"time": 349.6215139583219, "event": "done"}]}, {"trial": {"cue_direction": "right", "stimulus": "B|A", "correct_response": "f", "left_cue_condition": 0.3, "stimA_condition": 0.9, "response": "f", "performance": "Correct", "rt": 3.0762180415913463}, "events": [{"time": 349.63503970834427, "event": "initialize", "status": "ok"}, {"time": 349.63509145833086, "event": "start recording"}, {"time": 349.8701494166162, "event": "start"}, {"time": 349.8778257915983, "event": "show fixation"}, {"time": 350.38259816658683, "event": "show cue"}, {"time": 351.8876330415951, "event": "show fixation"}, {"time": 352.39511070831213, "event": "start sound"}, {"time": 352.3953081249492, "event": "start decision window"}, {"time": 353.62315337499604, "event": "response"}, {"time": 355.47152829158586, "event": "done"}]}, {"trial": {"cue_direction": "right", "stimulus": "A|A", "correct_response": "f", "left_cue_condition": 0.3, "stimA_condition": 0.9, "response": "f", "performance": "Correct", "rt": 2.454098124988377}, "events": [{"time": 355.4856799583649, "event": "initialize", "status": "ok"}, {"time": 355.4857366249198, "event": "start recording"}, {"time": 355.729100583354, "event": "start"}, {"time": 355.7367196249543, "event": "show fixation"}, {"time": 356.24198270833585, "event": "show cue"}, {"time": 357.746884416556, "event": "show fixation"}, {"time": 358.25470379157923, "event": "start sound"}, {"time": 358.2549199583009, "event": "start decision window"}, {"time": 358.9914674166357, "event": "response"}, {"time": 360.7090203749249, "event": "done"}]}, {"trial": {"cue_direction": "left", "stimulus": "A|A", "correct_response": "f", "left_cue_condition": 0.3, "stimA_condition": 0.9, "response": "f", "performance": "Correct", "rt": 2.9170679583912715}, "events": [{"time": 360.7229824583046, "event": "initialize", "status": "ok"}, {"time": 360.72304862493183, "event": "start recording"}, {"time": 360.9616282916395, "event": "start"}, {"time": 360.968869791599, "event": "show fixation"}, {"time": 361.4732789165573, "event": "show cue"}, {"time": 362.9781643333845, "event": "show fixation"}, {"time": 363.48732304153964, "event": "start sound"}, {"time": 363.4875748750055, "event": "start decision window"}, {"time": 364.06352366658393, "event": "response"}, {"time": 366.40464545832947, "event": "done"}]}, {"trial": {"cue_direction": "left", "stimulus": "A|A", "correct_response": "f", "left_cue_condition": 0.3, "stimA_condition": 0.9, "response": "f", "performance": "Correct", "rt": 2.855134791578166}, "events": [{"time": 366.4179744999856, "event": "initialize", "status": "ok"}, {"time": 366.41803895833436, "event": "start recording"}, {"time": 366.62768470833544, "event": "start"}, {"time": 366.63306770834606, "event": "show fixation"}, {"time": 367.13747254153714, "event": "show cue"}, {"time": 368.6418171249097, "event": "show fixation"}, {"time": 369.1496086665429, "event": "start sound"}, {"time": 369.14978329162113, "event": "start decision window"}, {"time": 369.79155124991667, "event": "response"}, {"time": 372.0049203749513, "event": "done"}]}, {"trial": {"cue_direction": "right", "stimulus": "B|A", "correct_response": "f", "left_cue_condition": 0.3, "stimA_condition": 0.9, "response": "f", "performance": "Correct", "rt": 3.0898114583687857}, "events": [{"time": 372.0188723333413, "event": "initialize", "status": "ok"}, {"time": 372.0189266249072, "event": "start recording"}, {"time": 372.26717825001106, "event": "start"}, {"time": 372.2736738749081, "event": "show fixation"}, {"time": 372.77782329160254, "event": "show cue"}, {"time": 374.2826972915791, "event": "show fixation"}, {"time": 374.79041033331305, "event": "start sound"}, {"time": 374.7906158333644, "event": "start decision window"}, {"time": 375.9035788750043, "event": "response"}, {"time": 377.8804288749816, "event": "done"}]}, {"trial": {"cue_direction": "right", "stimulus": "A|B", "correct_response": "j", "left_cue_condition": 0.3, "stimA_condition": 0.9, "response": "j", "performance": "Correct", "rt": 3.566582166706212}, "events": [{"time": 377.8938174166251, "event": "initialize", "status": "ok"}, {"time": 377.8938719165744, "event": "start recording"}, {"time": 378.13290391664486, "event": "start"}, {"time": 378.1401424165815, "event": "show fixation"}, {"time": 378.644369541551, "event": "show cue"}, {"time": 380.15072945831344, "event": "show fixation"}, {"time": 380.65835095837247, "event": "start sound"}, {"time": 380.6585663333535, "event": "start decision window"}, {"time": 382.21577062492725, "event": "response"}, {"time": 384.22515095828567, "event": "done"}]}, {"trial": {"cue_direction": "left", "stimulus": "A|A", "correct_response": "f", "left_cue_condition": 0.3, "stimA_condition": 0.9, "response": "f", "performance": "Correct", "rt": 2.14796454180032}, "events": [{"time": 384.2381143749226, "event": "initialize", "status": "ok"}, {"time": 384.23817483335733, "event": "start recording"}, {"time": 384.47897287493106, "event": "start"}, {"time": 384.4866734999232, "event": "show fixation"}, {"time": 384.9922812082805, "event": "show cue"}, {"time": 386.4973007083172, "event": "show fixation"}, {"time": 387.0048042915296, "event": "start sound"}, {"time": 387.0050560833188, "event": "start decision window"}, {"time": 387.551809916622, "event": "response"}, {"time": 389.15302354155574, "event": "done"}]}, {"trial": {"cue_direction": "right", "stimulus": "A|B", "correct_response": "j", "left_cue_condition": 0.3, "stimA_condition": 0.9, "response": "j", "performance": "Correct", "rt": 2.937664750032127}, "events": [{"time": 389.16636499995366, "event": "initialize", "status": "ok"}, {"time": 389.1664197499631, "event": "start recording"}, {"time": 389.39611195831094, "event": "start"}, {"time": 389.4035463749897, "event": "show fixation"}, {"time": 389.90901508333627, "event": "show cue"}, {"time": 391.41492808330804, "event": "show fixation"}, {"time": 391.9224717083853, "event": "start sound"}, {"time": 391.9226776249707, "event": "start decision window"}, {"time": 392.9757804166293, "event": "response"}, {"time": 394.86034449993167, "event": "done"}]}, {"trial": {"cue_direction": "left", "stimulus": "A|A", "correct_response": "f", "left_cue_condition": 0.3, "stimA_condition": 0.9, "response": "f", "performance": "Correct", "rt": 3.774049249943346}, "events": [{"time": 394.8736879583448, "event": "initialize", "status": "ok"}, {"time": 394.87377324991394, "event": "start recording"}, {"time": 395.10864891659, "event": "start"}, {"time": 395.11533562501427, "event": "show fixation"}, {"time": 395.62025404162705, "event": "show cue"}, {"time": 397.12650466663763, "event": "show fixation"}, {"time": 397.6344183749752, "event": "start sound"}, {"time": 397.63461804157123, "event": "start decision window"}, {"time": 399.4956725833472, "event": "response"}, {"time": 401.40867129154503, "event": "done"}]}, {"trial": {"cue_direction": "right", "stimulus": "A|A", "correct_response": "f", "left_cue_condition": 0.3, "stimA_condition": 0.9, "response": "f", "performance": "Correct", "rt": 2.966629166621715}, "events": [{"time": 401.4219046665821, "event": "initialize", "status": "ok"}, {"time": 401.42196333338507, "event": "start recording"}, {"time": 401.66286808333825, "event": "start"}, {"time": 401.67014212498907, "event": "show fixation"}, {"time": 402.17541804153007, "event": "show cue"}, {"time": 403.67983191658277, "event": "show fixation"}, {"time": 404.18739324994385, "event": "start sound"}, {"time": 404.18758245836943, "event": "start decision window"}, {"time": 404.87991466664243, "event": "response"}, {"time": 407.15421370835975, "event": "done"}]}, {"trial": {"cue_direction": "left", "stimulus": "A|A", "correct_response": "f", "left_cue_condition": 0.3, "stimA_condition": 0.9, "response": "f", "performance": "Correct", "rt": 2.4429712500423193}, "events": [{"time": 407.1674311249517, "event": "initialize", "status": "ok"}, {"time": 407.16749725001864, "event": "start recording"}, {"time": 407.4071426666342, "event": "start"}, {"time": 407.4142244165996, "event": "show fixation"}, {"time": 407.91933858336415, "event": "show cue"}, {"time": 409.4236881249817, "event": "show fixation"}, {"time": 409.93124308332335, "event": "start sound"}, {"time": 409.9314393333625, "event": "start decision window"}, {"time": 410.43205083336215, "event": "response"}, {"time": 412.374413750018, "event": "done"}]}, {"trial": {"cue_direction": "left", "stimulus": "A|A", "correct_response": "f", "left_cue_condition": 0.3, "stimA_condition": 0.9, "response": "f", "performance": "Correct", "rt": 3.114657041616738}, "events": [{"time": 412.3871016249759, "event": "initialize", "status": "ok"}, {"time": 412.38716441660654, "event": "start recording"}, {"time": 412.63458983332384, "event": "start"}, {"time": 412.6419492083369, "event": "show fixation"}, {"time": 413.147185541573, "event": "show cue"}, {"time": 414.65160049998667, "event": "show fixation"}, {"time": 415.15928566653747, "event": "start sound"}, {"time": 415.1594824999338, "event": "start decision window"}, {"time": 415.91212004155386, "event": "response"}, {"time": 418.27414158335887, "event": "done"}]}, {"trial": {"cue_direction": "right", "stimulus": "A|A", "correct_response": "f", "left_cue_condition": 0.3, "stimA_condition": 0.9, "response": "f", "performance": "Correct", "rt": 3.0526321249781176}, "events": [{"time": 418.2873352499446, "event": "initialize", "status": "ok"}, {"time": 418.28739537496585, "event": "start recording"}, {"time": 418.52595962490886, "event": "start"}, {"time": 418.53341716655996, "event": "show fixation"}, {"time": 419.03887424990535, "event": "show cue"}, {"time": 420.54404104163405, "event": "show fixation"}, {"time": 421.0521475415444, "event": "start sound"}, {"time": 421.05235316662584, "event": "start decision window"}, {"time": 422.03982224990614, "event": "response"}, {"time": 424.1049880000064, "event": "done"}]}, {"trial": {"cue_direction": "left", "stimulus": "A|B", "correct_response": "f", "left_cue_condition": 0.9, "stimA_condition": 0.9, "response": "f", "performance": "Correct", "rt": 4.695795958279632}, "events": [{"time": 520.0667261249619, "event": "initialize", "status": "ok"}, {"time": 520.0671794165391, "event": "start recording"}, {"time": 520.2947194583248, "event": "start"}, {"time": 520.3013228332857, "event": "show fixation"}, {"time": 520.8065477083437, "event": "show cue"}, {"time": 522.3117805833463, "event": "show fixation"}, {"time": 522.8194703332847, "event": "start sound"}, {"time": 522.8196762083098, "event": "start decision window"}, {"time": 525.2414622083306, "event": "response"}, {"time": 527.5154750415822, "event": "done"}]}, {"trial": {"cue_direction": "left", "stimulus": "A|A", "correct_response": "f", "left_cue_condition": 0.9, "stimA_condition": 0.9, "response": "f", "performance": "Correct", "rt": 2.880206708330661}, "events": [{"time": 527.5291510833194, "event": "initialize", "status": "ok"}, {"time": 527.5292141250102, "event": "start recording"}, {"time": 527.7700206665322, "event": "start"}, {"time": 527.7770741665736, "event": "show fixation"}, {"time": 528.2827241666382, "event": "show cue"}, {"time": 529.7880585415987, "event": "show fixation"}, {"time": 530.2961589165498, "event": "start sound"}, {"time": 530.2963718333049, "event": "start decision window"}, {"time": 530.8495056249667, "event": "response"}, {"time": 533.1765804166207, "event": "done"}]}, {"trial": {"cue_direction": "left", "stimulus": "A|A", "correct_response": "f", "left_cue_condition": 0.9, "stimA_condition": 0.9, "response": "f", "performance": "Correct", "rt": 2.5931868749903515}, "events": [{"time": 533.1902227916289, "event": "initialize", "status": "ok"}, {"time": 533.1902792499168, "event": "start recording"}, {"time": 533.4302787915803, "event": "start"}, {"time": 533.4366254166234, "event": "show fixation"}, {"time": 533.9410555833019, "event": "show cue"}, {"time": 535.4462558749365, "event": "show fixation"}, {"time": 535.954200624954, "event": "start sound"}, {"time": 535.9543859999394, "event": "start decision window"}, {"time": 536.4656628749799, "event": "response"}, {"time": 538.5475774166407, "event": "done"}]}, {"trial": {"cue_direction": "left", "stimulus": "B|A", "correct_response": "j", "left_cue_condition": 0.9, "stimA_condition": 0.9, "response": "j", "performance": "Correct", "rt": 3.3858839999884367}, "events": [{"time": 538.561517208349, "event": "initialize", "status": "ok"}, {"time": 538.5616182915401, "event": "start recording"}, {"time": 538.7624409166165, "event": "start"}, {"time": 538.7666528749978, "event": "show fixation"}, {"time": 539.2712977916235, "event": "show cue"}, {"time": 540.7757877083495, "event": "show fixation"}, {"time": 541.2830652915873, "event": "start sound"}, {"time": 541.2833032499766, "event": "start decision window"}, {"time": 543.025595041574, "event": "response"}, {"time": 544.669189624954, "event": "done"}]}, {"trial": {"cue_direction": "left", "stimulus": "A|A", "correct_response": "f", "left_cue_condition": 0.9, "stimA_condition": 0.9, "response": "f", "performance": "Correct", "rt": 3.3268960000714287}, "events": [{"time": 544.6822347500129, "event": "initialize", "status": "ok"}, {"time": 544.682295916602, "event": "start recording"}, {"time": 544.9236022916157, "event": "start"}, {"time": 544.930764458375, "event": "show fixation"}, {"time": 545.4357796666445, "event": "show cue"}, {"time": 546.9437490833225, "event": "show fixation"}, {"time": 547.4517627083696, "event": "start sound"}, {"time": 547.4519629165297, "event": "start decision window"}, {"time": 548.401461499976, "event": "response"}, {"time": 550.7788609999698, "event": "done"}]}, {"trial": {"cue_direction": "left", "stimulus": "A|A", "correct_response": "f", "left_cue_condition": 0.9, "stimA_condition": 0.9, "response": "f", "performance": "Correct", "rt": 2.9072303333086893}, "events": [{"time": 550.7918280833401, "event": "initialize", "status": "ok"}, {"time": 550.7918810833944, "event": "start recording"}, {"time": 551.0275304999668, "event": "start"}, {"time": 551.0344446249073, "event": "show fixation"}, {"time": 551.5395432499936, "event": "show cue"}, {"time": 553.0457787082996, "event": "show fixation"}, {"time": 553.5539470416261, "event": "start sound"}, {"time": 553.5541372916196, "event": "start decision window"}, {"time": 554.1137759583071, "event": "response"}, {"time": 556.4613696249435, "event": "done"}]}, {"trial": {"cue_direction": "left", "stimulus": "A|A", "correct_response": "f", "left_cue_condition": 0.9, "stimA_condition": 0.9, "response": "f", "performance": "Correct", "rt": 3.0510203749872744}, "events": [{"time": 556.474437833298, "event": "initialize", "status": "ok"}, {"time": 556.4745017082896, "event": "start recording"}, {"time": 556.7119899166282, "event": "start"}, {"time": 556.7172179582994, "event": "show fixation"}, {"time": 557.2231063332874, "event": "show cue"}, {"time": 558.7290088332957, "event": "show fixation"}, {"time": 559.23682250001, "event": "start sound"}, {"time": 559.2370297500165, "event": "start decision window"}, {"time": 560.1135831666179, "event": "response"}, {"time": 562.2880522499327, "event": "done"}]}, {"trial": {"cue_direction": "left", "stimulus": "A|A", "correct_response": "f", "left_cue_condition": 0.9, "stimA_condition": 0.9, "response": "f", "performance": "Correct", "rt": 2.935379458242096}, "events": [{"time": 562.30152095831, "event": "initialize", "status": "ok"}, {"time": 562.3015982499346, "event": "start recording"}, {"time": 562.5369750832906, "event": "start"}, {"time": 562.5439159165835, "event": "show fixation"}, {"time": 563.0493760833051, "event": "show cue"}, {"time": 564.5533249166328, "event": "show fixation"}, {"time": 565.061150124995, "event": "start sound"}, {"time": 565.0613511665724, "event": "start decision window"}, {"time": 566.4737195000052, "event": "response"}, {"time": 567.9967345832847, "event": "done"}]}, {"trial": {"cue_direction": "left", "stimulus": "A|A", "correct_response": "f", "left_cue_condition": 0.9, "stimA_condition": 0.9, "response": "f", "performance": "Correct", "rt": 2.388348624925129}, "events": [{"time": 568.0100741249043, "event": "initialize", "status": "ok"}, {"time": 568.0101357083768, "event": "start recording"}, {"time": 568.2527545833727, "event": "start"}, {"time": 568.2594532499788, "event": "show fixation"}, {"time": 568.7646211249521, "event": "show cue"}, {"time": 570.2780020416249, "event": "show fixation"}, {"time": 570.786214999971, "event": "start sound"}, {"time": 570.7864277915796, "event": "start decision window"}, {"time": 571.2259698749986, "event": "response"}, {"time": 573.1747789166402, "event": "done"}]}, {"trial": {"cue_direction": "left", "stimulus": "A|B", "correct_response": "f", "left_cue_condition": 0.9, "stimA_condition": 0.9, "response": "f", "performance": "Correct", "rt": 3.7213654167717323}, "events": [{"time": 573.1881002915325, "event": "initialize", "status": "ok"}, {"time": 573.1881621249486, "event": "start recording"}, {"time": 573.4299264582805, "event": "start"}, {"time": 573.4366535416339, "event": "show fixation"}, {"time": 573.9414549582871, "event": "show cue"}, {"time": 575.4460359583609, "event": "show fixation"}, {"time": 575.9536007499555, "event": "start sound"}, {"time": 575.9538091249997, "event": "start decision window"}, {"time": 577.9381002499722, "event": "response"}, {"time": 579.6751775415614, "event": "done"}]}, {"trial": {"cue_direction": "left", "stimulus": "A|A", "correct_response": "f", "left_cue_condition": 0.9, "stimA_condition": 0.9, "response": "f", "performance": "Correct", "rt": 2.486547708278522}, "events": [{"time": 579.6886247500079, "event": "initialize", "status": "ok"}, {"time": 579.6886844165856, "event": "start recording"}, {"time": 579.9264028749894, "event": "start"}, {"time": 579.9330989583395, "event": "show fixation"}, {"time": 580.4371528750053, "event": "show cue"}, {"time": 581.9424047499197, "event": "show fixation"}, {"time": 582.4500286666444, "event": "start sound"}, {"time": 582.4503007915337, "event": "start decision window"}, {"time": 582.9862016666448, "event": "response"}, {"time": 584.9368497083196, "event": "done"}]}, {"trial": {"cue_direction": "left", "stimulus": "A|A", "correct_response": "f", "left_cue_condition": 0.9, "stimA_condition": 0.9, "response": "f", "performance": "Correct", "rt": 2.328220625058748}, "events": [{"time": 584.9501359999413, "event": "initialize", "status": "ok"}, {"time": 584.9501997083426, "event": "start recording"}, {"time": 585.1878504999913, "event": "start"}, {"time": 585.1942048333585, "event": "show fixation"}, {"time": 585.6990802915534, "event": "show cue"}, {"time": 587.2044497500174, "event": "show fixation"}, {"time": 587.7121533333557, "event": "start sound"}, {"time": 587.7123574583093, "event": "start decision window"}, {"time": 588.1942121249158, "event": "response"}, {"time": 590.040580541594, "event": "done"}]}, {"trial": {"cue_direction": "left", "stimulus": "A|A", "correct_response": "f", "left_cue_condition": 0.9, "stimA_condition": 0.9, "response": "f", "performance": "Correct", "rt": 2.3209124165587127}, "events": [{"time": 590.0542944583576, "event": "initialize", "status": "ok"}, {"time": 590.0543559165671, "event": "start recording"}, {"time": 590.2995784583036, "event": "start"}, {"time": 590.3040608332958, "event": "show fixation"}, {"time": 590.8091445832979, "event": "show cue"}, {"time": 592.3143476665718, "event": "show fixation"}, {"time": 592.8221798749873, "event": "start sound"}, {"time": 592.8223893333925, "event": "start decision window"}, {"time": 593.1621795833344, "event": "response"}, {"time": 595.1433040415868, "event": "done"}]}, {"trial": {"cue_direction": "left", "stimulus": "A|A", "correct_response": "f", "left_cue_condition": 0.9, "stimA_condition": 0.9, "response": "f", "performance": "Correct", "rt": 2.1926864583510906}, "events": [{"time": 595.1567588333273, "event": "initialize", "status": "ok"}, {"time": 595.1568112083478, "event": "start recording"}, {"time": 595.3966640833532, "event": "start"}, {"time": 595.4032265415881, "event": "show fixation"}, {"time": 595.9082843333017, "event": "show cue"}, {"time": 597.4131809165701, "event": "show fixation"}, {"time": 597.9210119165946, "event": "start sound"}, {"time": 597.9212132499088, "event": "start decision window"}, {"time": 598.2903472083854, "event": "response"}, {"time": 600.1139035833767, "event": "done"}]}, {"trial": {"cue_direction": "left", "stimulus": "A|A", "correct_response": "f", "left_cue_condition": 0.9, "stimA_condition": 0.9, "response": "f", "performance": "Correct", "rt": 2.948991541750729}, "events": [{"time": 600.1275157083292, "event": "initialize", "status": "ok"}, {"time": 600.1275774999522, "event": "start recording"}, {"time": 600.3719045832986, "event": "start"}, {"time": 600.3785753333941, "event": "show fixation"}, {"time": 600.8832362499088, "event": "show cue"}, {"time": 602.388444583281, "event": "show fixation"}, {"time": 602.8964387499727, "event": "start sound"}, {"time": 602.8966495000059, "event": "start decision window"}, {"time": 604.3302323333919, "event": "response"}, {"time": 605.8456436665729, "event": "done"}]}, {"trial": {"cue_direction": "left", "stimulus": "A|A", "correct_response": "f", "left_cue_condition": 0.9, "stimA_condition": 0.9, "response": "f", "performance": "Correct", "rt": 2.1668723333859816}, "events": [{"time": 605.8590458749095, "event": "initialize", "status": "ok"}, {"time": 605.8591086249799, "event": "start recording"}, {"time": 606.0943509583594, "event": "start"}, {"time": 606.1015198749956, "event": "show fixation"}, {"time": 606.6069781666156, "event": "show cue"}, {"time": 608.1118294999469, "event": "show fixation"}, {"time": 608.619693125016, "event": "start sound"}, {"time": 608.619918750017, "event": "start decision window"}, {"time": 609.2664837082848, "event": "response"}, {"time": 610.7867934999522, "event": "done"}]}, {"trial": {"cue_direction": "right", "stimulus": "A|B", "correct_response": "j", "left_cue_condition": 0.9, "stimA_condition": 0.9, "response": "j", "performance": "Correct", "rt": 2.4459462916711345}, "events": [{"time": 610.8007797499886, "event": "initialize", "status": "ok"}, {"time": 610.8008429999463, "event": "start recording"}, {"time": 611.0354432915337, "event": "start"}, {"time": 611.042473083362, "event": "show fixation"}, {"time": 611.5479413333815, "event": "show cue"}, {"time": 613.05320795835, "event": "show fixation"}, {"time": 613.560932791559, "event": "start sound"}, {"time": 613.56111720833, "event": "start decision window"}, {"time": 614.0345187499188, "event": "response"}, {"time": 616.0070659165503, "event": "done"}]}, {"trial": {"cue_direction": "left", "stimulus": "A|A", "correct_response": "f", "left_cue_condition": 0.9, "stimA_condition": 0.9, "response": "f", "performance": "Correct", "rt": 3.902536333305761}, "events": [{"time": 616.0209085416282, "event": "initialize", "status": "ok"}, {"time": 616.020985124982, "event": "start recording"}, {"time": 616.2611164583359, "event": "start"}, {"time": 616.2680539166322, "event": "show fixation"}, {"time": 616.7732931665378, "event": "show cue"}, {"time": 618.2784014999634, "event": "show fixation"}, {"time": 618.7860631250078, "event": "start sound"}, {"time": 618.7862722499995, "event": "start decision window"}, {"time": 620.7303790833103, "event": "response"}, {"time": 622.6888109582942, "event": "done"}]}, {"trial": {"cue_direction": "right", "stimulus": "B|A", "correct_response": "f", "left_cue_condition": 0.9, "stimA_condition": 0.9, "response": "f", "performance": "Correct", "rt": 3.2020058332709596}, "events": [{"time": 622.7018456249498, "event": "initialize", "status": "ok"}, {"time": 622.7019235416083, "event": "start recording"}, {"time": 622.9380756249884, "event": "start"}, {"time": 622.945488999947, "event": "show fixation"}, {"time": 623.4508288333891, "event": "show cue"}, {"time": 624.9560978749068, "event": "show fixation"}, {"time": 625.4635693333112, "event": "start sound"}, {"time": 625.4637806249084, "event": "start decision window"}, {"time": 626.3948170833755, "event": "response"}, {"time": 628.6657887499314, "event": "done"}]}, {"trial": {"cue_direction": "left", "stimulus": "A|A", "correct_response": "f", "left_cue_condition": 0.9, "stimA_condition": 0.9, "response": "f", "performance": "Correct", "rt": 2.567664625006728}, "events": [{"time": 628.6790947082918, "event": "initialize", "status": "ok"}, {"time": 628.6791550833732, "event": "start recording"}, {"time": 628.8879912499106, "event": "start"}, {"time": 628.8936603333568, "event": "show fixation"}, {"time": 629.3983080416219, "event": "show cue"}, {"time": 630.9117041665595, "event": "show fixation"}, {"time": 631.4196327083046, "event": "start sound"}, {"time": 631.419867749908, "event": "start decision window"}, {"time": 632.3144805832999, "event": "response"}, {"time": 633.9875345416367, "event": "done"}]}, {"trial": {"cue_direction": "left", "stimulus": "A|A", "correct_response": "f", "left_cue_condition": 0.9, "stimA_condition": 0.9, "response": "f", "performance": "Correct", "rt": 2.5177575416164473}, "events": [{"time": 634.0011189583456, "event": "initialize", "status": "ok"}, {"time": 634.0011804583482, "event": "start recording"}, {"time": 634.2413132915972, "event": "start"}, {"time": 634.2486408333061, "event": "show fixation"}, {"time": 634.7538634999655, "event": "show cue"}, {"time": 636.2585035415832, "event": "show fixation"}, {"time": 636.7688070415752, "event": "start sound"}, {"time": 636.7690151665593, "event": "start decision window"}, {"time": 637.6186204999685, "event": "response"}, {"time": 639.2867772083264, "event": "done"}]}, {"trial": {"cue_direction": "left", "stimulus": "A|A", "correct_response": "f", "left_cue_condition": 0.9, "stimA_condition": 0.9, "response": "f", "performance": "Correct", "rt": 2.6940197916701436}, "events": [{"time": 639.3004752499983, "event": "initialize", "status": "ok"}, {"time": 639.3005450415658, "event": "start recording"}, {"time": 639.534534916631, "event": "start"}, {"time": 639.5419488749467, "event": "show fixation"}, {"time": 640.0473999583628, "event": "show cue"}, {"time": 641.5534547915449, "event": "show fixation"}, {"time": 642.0612133333925, "event": "start sound"}, {"time": 642.0614249582868, "event": "start decision window"}, {"time": 642.8026548749767, "event": "response"}, {"time": 644.7554468333255, "event": "done"}]}, {"trial": {"cue_direction": "left", "stimulus": "A|A", "correct_response": "f", "left_cue_condition": 0.9, "stimA_condition": 0.9, "response": "f", "performance": "Correct", "rt": 2.393684749957174}, "events": [{"time": 644.7686205833452, "event": "initialize", "status": "ok"}, {"time": 644.7686982083833, "event": "start recording"}, {"time": 644.9783717915416, "event": "start"}, {"time": 644.9847224999685, "event": "show fixation"}, {"time": 645.489996499964, "event": "show cue"}, {"time": 646.9951283333357, "event": "show fixation"}, {"time": 647.5030493749073, "event": "start sound"}, {"time": 647.5032544999849, "event": "start decision window"}, {"time": 648.1309003332863, "event": "response"}, {"time": 649.8969416249311, "event": "done"}]}, {"trial": {"cue_direction": "left", "stimulus": "A|A", "correct_response": "f", "left_cue_condition": 0.9, "stimA_condition": 0.9, "response": "f", "performance": "Correct", "rt": 2.4459478749195114}, "events": [{"time": 649.9101427915739, "event": "initialize", "status": "ok"}, {"time": 649.9102166666416, "event": "start recording"}, {"time": 650.1427630415419, "event": "start"}, {"time": 650.1500149999047, "event": "show fixation"}, {"time": 650.654426208348, "event": "show cue"}, {"time": 652.1590209583519, "event": "show fixation"}, {"time": 652.6675577915739, "event": "start sound"}, {"time": 652.6677512915339, "event": "start decision window"}, {"time": 652.9870659165317, "event": "response"}, {"time": 655.113701791619, "event": "done"}]}, {"trial": {"cue_direction": "left", "stimulus": "A|A", "correct_response": "f", "left_cue_condition": 0.9, "stimA_condition": 0.9, "response": "f", "performance": "Correct", "rt": 2.752615416655317}, "events": [{"time": 655.1274235832971, "event": "initialize", "status": "ok"}, {"time": 655.1274930415675, "event": "start recording"}, {"time": 655.3654016666114, "event": "start"}, {"time": 655.3707051665988, "event": "show fixation"}, {"time": 655.8758308333345, "event": "show cue"}, {"time": 657.3815994582837, "event": "show fixation"}, {"time": 657.889192749979, "event": "start sound"}, {"time": 657.8893861665856, "event": "start decision window"}, {"time": 658.4191233332967, "event": "response"}, {"time": 660.6420052499743, "event": "done"}]}, {"trial": {"cue_direction": "left", "stimulus": "B|A", "correct_response": "j", "left_cue_condition": 0.9, "stimA_condition": 0.9, "response": "j", "performance": "Correct", "rt": 3.4024898334173486}, "events": [{"time": 660.6553971249377, "event": "initialize", "status": "ok"}, {"time": 660.6554645833094, "event": "start recording"}, {"time": 660.8917715415591, "event": "start"}, {"time": 660.8988134165993, "event": "show fixation"}, {"time": 661.4042611665791, "event": "show cue"}, {"time": 662.9094013749855, "event": "show fixation"}, {"time": 663.4199155833339, "event": "start sound"}, {"time": 663.4201164166443, "event": "start decision window"}, {"time": 664.7390608333517, "event": "response"}, {"time": 666.8226092082914, "event": "done"}]}, {"trial": {"cue_direction": "left", "stimulus": "A|A", "correct_response": "f", "left_cue_condition": 0.9, "stimA_condition": 0.9, "response": "f", "performance": "Correct", "rt": 3.4210952499415725}, "events": [{"time": 666.8360115415417, "event": "initialize", "status": "ok"}, {"time": 666.8360731250141, "event": "start recording"}, {"time": 667.0759572916431, "event": "start"}, {"time": 667.0828933749581, "event": "show fixation"}, {"time": 667.588403166621, "event": "show cue"}, {"time": 669.0936442083912, "event": "show fixation"}, {"time": 669.6025460415985, "event": "start sound"}, {"time": 669.6027535833418, "event": "start decision window"}, {"time": 670.618963249959, "event": "response"}, {"time": 673.0238515833626, "event": "done"}]}, {"trial": {"cue_direction": "left", "stimulus": "A|A", "correct_response": "f", "left_cue_condition": 0.9, "stimA_condition": 0.9, "response": "f", "performance": "Correct", "rt": 2.860950083239004}, "events": [{"time": 673.0368004583288, "event": "initialize", "status": "ok"}, {"time": 673.0368784583407, "event": "start recording"}, {"time": 673.2724549582927, "event": "start"}, {"time": 673.2790498749819, "event": "show fixation"}, {"time": 673.784544999944, "event": "show cue"}, {"time": 675.289853166556, "event": "show fixation"}, {"time": 675.7975165415555, "event": "start sound"}, {"time": 675.7977339583449, "event": "start decision window"}, {"time": 676.3073177499464, "event": "response"}, {"time": 678.6586867083097, "event": "done"}]}, {"trial": {"cue_direction": "left", "stimulus": "A|A", "correct_response": "f", "left_cue_condition": 0.9, "stimA_condition": 0.9, "response": "f", "performance": "Correct", "rt": 2.9933870831737295}, "events": [{"time": 678.6722222915851, "event": "initialize", "status": "ok"}, {"time": 678.6723005415406, "event": "start recording"}, {"time": 678.8803120416123, "event": "start"}, {"time": 678.8861174165504, "event": "show fixation"}, {"time": 679.3907479583286, "event": "show cue"}, {"time": 680.9049067082815, "event": "show fixation"}, {"time": 681.4128412499558, "event": "start sound"}, {"time": 681.4130405415781, "event": "start decision window"}, {"time": 682.3791920833755, "event": "response"}, {"time": 684.4064299999736, "event": "done"}]}, {"trial": {"cue_direction": "left", "stimulus": "A|A", "correct_response": "f", "left_cue_condition": 0.9, "stimA_condition": 0.9, "response": "f", "performance": "Correct", "rt": 2.6117531249765307}, "events": [{"time": 684.4195713750087, "event": "initialize", "status": "ok"}, {"time": 684.4196407916024, "event": "start recording"}, {"time": 684.6545789166121, "event": "start"}, {"time": 684.6617315832991, "event": "show fixation"}, {"time": 685.1670977083268, "event": "show cue"}, {"time": 686.6720739165321, "event": "show fixation"}, {"time": 687.1798669582931, "event": "start sound"}, {"time": 687.1800647083437, "event": "start decision window"}, {"time": 687.5154964583926, "event": "response"}, {"time": 689.7918201666325, "event": "done"}]}], "practice_data": [], "window": [1920, 1080], "bonus": 31.16}