{"config_number": 0, "parameters": {"points_per_cent": 2, "time_limit": 5, "correct_responses": ["f", "j"], "combination_num": 8, "gaze_tolerance": 1.5, "triggers": "<triggers.Triggers object at 0x159529070>"}, "main_data": [{"trial": {"cue_direction": "right", "stimulus": "A|A", "correct_response": "f", "left_cue_condition": 0.3, "stimA_condition": 0.9, "response": "f", "performance": "Correct", "rt": 3.232138291816227}, "events": [{"time": 249.9720777083421, "event": "initialize", "status": "ok"}, {"time": 249.97234749991912, "event": "start recording"}, {"time": 250.18819395836908, "event": "start"}, {"time": 250.1969577500131, "event": "show fixation"}, {"time": 250.70149674999993, "event": "show cue"}, {"time": 252.20613620837685, "event": "show fixation"}, {"time": 252.77008766657673, "event": "start sound"}, {"time": 252.7703964165412, "event": "start decision window"}, {"time": 254.06249937496614, "event": "response"}, {"time": 256.0025352083612, "event": "done"}]}, {"trial": {"cue_direction": "left", "stimulus": "A|B", "correct_response": "f", "left_cue_condition": 0.3, "stimA_condition": 0.9, "response": "f", "performance": "Correct", "rt": 4.1224157916149125}, "events": [{"time": 256.0166300415294, "event": "initialize", "status": "ok"}, {"time": 256.0167059582891, "event": "start recording"}, {"time": 256.2532652915688, "event": "start"}, {"time": 256.25993162498344, "event": "show fixation"}, {"time": 256.76535033329856, "event": "show cue"}, {"time": 258.2704134165542, "event": "show fixation"}, {"time": 258.7780635416275, "event": "start sound"}, {"time": 258.7782752083149, "event": "start decision window"}, {"time": 260.870299916598, "event": "response"}, {"time": 262.90069291659165, "event": "done"}]}, {"trial": {"cue_direction": "right", "stimulus": "A|A", "correct_response": "f", "left_cue_condition": 0.3, "stimA_condition": 0.9, "response": "f", "performance": "Correct", "rt": 2.9446436666185036}, "events": [{"time": 262.914713999955, "event": "initialize", "status": "ok"}, {"time": 262.914791374933, "event": "start recording"}, {"time": 263.15550395834725, "event": "start"}, {"time": 263.1627949165413, "event": "show fixation"}, {"time": 263.66837791656144, "event": "show cue"}, {"time": 265.17320033337455, "event": "show fixation"}, {"time": 265.6809705415508, "event": "start sound"}, {"time": 265.68116933328565, "event": "start decision window"}, {"time": 266.4705639166059, "event": "response"}, {"time": 268.62581537500955, "event": "done"}]}, {"trial": {"cue_direction": "left", "stimulus": "A|A", "correct_response": "f", "left_cue_condition": 0.3, "stimA_condition": 0.9, "response": "f", "performance": "Correct", "rt": 3.4103627916192636}, "events": [{"time": 268.6396827499848, "event": "initialize", "status": "ok"}, {"time": 268.63975550001487, "event": "start recording"}, {"time": 268.87839149998035, "event": "start"}, {"time": 268.88343091658317, "event": "show fixation"}, {"time": 269.38872524991166, "event": "show cue"}, {"time": 270.8930627083173, "event": "show fixation"}, {"time": 271.4025711666327, "event": "start sound"}, {"time": 271.40277537493967, "event": "start decision window"}, {"time": 272.74252079159487, "event": "response"}, {"time": 274.8131400415441, "event": "done"}]}, {"trial": {"cue_direction": "left", "stimulus": "A|A", "correct_response": "f", "left_cue_condition": 0.3, "stimA_condition": 0.9, "response": "f", "performance": "Correct", "rt": 2.8854468332137913}, "events": [{"time": 274.82659812492784, "event": "initialize", "status": "ok"}, {"time": 274.8266685415292, "event": "start recording"}, {"time": 275.06548483332153, "event": "start"}, {"time": 275.0728923333809, "event": "show fixation"}, {"time": 275.5784378333483, "event": "show cue"}, {"time": 277.0837383749895, "event": "show fixation"}, {"time": 277.59480495832395, "event": "start sound"}, {"time": 277.59500116657, "event": "start decision window"}, {"time": 278.28670850000344, "event": "response"}, {"time": 280.4804498333251, "event": "done"}]}, {"trial": {"cue_direction": "right", "stimulus": "B|A", "correct_response": "f", "left_cue_condition": 0.3, "stimA_condition": 0.9, "response": "f", "performance": "Correct", "rt": 3.4055375832831487}, "events": [{"time": 280.49391404155176, "event": "initialize", "status": "ok"}, {"time": 280.4939887499204, "event": "start recording"}, {"time": 280.7033953749342, "event": "start"}, {"time": 280.70853974996135, "event": "show fixation"}, {"time": 281.21348191658035, "event": "show cue"}, {"time": 282.71774654160254, "event": "show fixation"}, {"time": 283.2274003333878, "event": "start sound"}, {"time": 283.2276814165525, "event": "start decision window"}, {"time": 284.49465920834336, "event": "response"}, {"time": 286.633220833377, "event": "done"}]}, {"trial": {"cue_direction": "left", "stimulus": "B|A", "correct_response": "j", "left_cue_condition": 0.3, "stimA_condition": 0.9, "response": "j", "performance": "Correct", "rt": 3.6144952500471845}, "events": [{"time": 286.64663279161323, "event": "initialize", "status": "ok"}, {"time": 286.646691083326, "event": "start recording"}, {"time": 286.88537604163866, "event": "start"}, {"time": 286.89267895836383, "event": "show fixation"}, {"time": 287.3982118333224, "event": "show cue"}, {"time": 288.9031439166283, "event": "show fixation"}, {"time": 289.4107034999179, "event": "start sound"}, {"time": 289.410930041573, "event": "start decision window"}, {"time": 291.14250633330084, "event": "response"}, {"time": 293.0254271249287, "event": "done"}]}, {"trial": {"cue_direction": "left", "stimulus": "A|A", "correct_response": "f", "left_cue_condition": 0.3, "stimA_condition": 0.9, "response": "f", "performance": "Correct", "rt": 3.8301667500054464}, "events": [{"time": 293.03861733328085, "event": "initialize", "status": "ok"}, {"time": 293.03867891663685, "event": "start recording"}, {"time": 293.27330179163255, "event": "start"}, {"time": 293.28018204157706, "event": "show fixation"}, {"time": 293.7856737499824, "event": "show cue"}, {"time": 295.2904976665741, "event": "show fixation"}, {"time": 295.79853379155975, "event": "start sound"}, {"time": 295.79879229154903, "event": "start decision window"}, {"time": 297.806396583328, "event": "response"}, {"time": 299.6289616249269, "event": "done"}]}, {"trial": {"cue_direction": "right", "stimulus": "A|A", "correct_response": "f", "left_cue_condition": 0.3, "stimA_condition": 0.9, "response": "f", "performance": "Correct", "rt": 3.4176014168187976}, "events": [{"time": 299.64190162497107, "event": "initialize", "status": "ok"}, {"time": 299.64196762500796, "event": "start recording"}, {"time": 299.8828991249902, "event": "start"}, {"time": 299.89026566653047, "event": "show fixation"}, {"time": 300.39466179162264, "event": "show cue"}, {"time": 301.89879412495065, "event": "show fixation"}, {"time": 302.4064046249259, "event": "start sound"}, {"time": 302.40660141652916, "event": "start decision window"}, {"time": 303.63867404160555, "event": "response"}, {"time": 305.82420495839324, "event": "done"}]}, {"trial": {"cue_direction": "left", "stimulus": "A|B", "correct_response": "f", "left_cue_condition": 0.3, "stimA_condition": 0.9, "response": "f", "performance": "Correct", "rt": 2.44321970816236}, "events": [{"time": 305.8370689583244, "event": "initialize", "status": "ok"}, {"time": 305.83713037497364, "event": "start recording"}, {"time": 306.071671249927, "event": "start"}, {"time": 306.07771808328107, "event": "show fixation"}, {"time": 306.5826585832983, "event": "show cue"}, {"time": 308.08812016656157, "event": "show fixation"}, {"time": 308.5956948333187, "event": "start sound"}, {"time": 308.59589316661004, "event": "start decision window"}, {"time": 309.50283212494105, "event": "response"}, {"time": 311.03911512496416, "event": "done"}]}, {"trial": {"cue_direction": "right", "stimulus": "A|A", "correct_response": "f", "left_cue_condition": 0.3, "stimA_condition": 0.9, "response": "f", "performance": "Correct", "rt": 2.702182708424516}, "events": [{"time": 311.05231591663323, "event": "initialize", "status": "ok"}, {"time": 311.0523699999321, "event": "start recording"}, {"time": 311.29534295829944, "event": "start"}, {"time": 311.30297620838974, "event": "show fixation"}, {"time": 311.80837445834186, "event": "show cue"}, {"time": 313.3128709999146, "event": "show fixation"}, {"time": 313.82071029162034, "event": "start sound"}, {"time": 313.8209558749804, "event": "start decision window"}, {"time": 314.72656179161277, "event": "response"}, {"time": 316.5231407500105, "event": "done"}]}, {"trial": {"cue_direction": "right", "stimulus": "A|B", "correct_response": "j", "left_cue_condition": 0.3, "stimA_condition": 0.9, "response": "j", "performance": "Correct", "rt": 2.6269353750394657}, "events": [{"time": 316.53609395830426, "event": "initialize", "status": "ok"}, {"time": 316.5361536249984, "event": "start recording"}, {"time": 316.77816062490456, "event": "start"}, {"time": 316.78556904161815, "event": "show fixation"}, {"time": 317.29093579156324, "event": "show cue"}, {"time": 318.7961167083122, "event": "show fixation"}, {"time": 319.30394512496423, "event": "start sound"}, {"time": 319.30414920835756, "event": "start decision window"}, {"time": 320.3430328749819, "event": "response"}, {"time": 321.931088458281, "event": "done"}]}, {"trial": {"cue_direction": "right", "stimulus": "A|A", "correct_response": "f", "left_cue_condition": 0.3, "stimA_condition": 0.9, "response": "f", "performance": "Correct", "rt": 2.3200723332120106}, "events": [{"time": 321.9443717915565, "event": "initialize", "status": "ok"}, {"time": 321.9444377083564, "event": "start recording"}, {"time": 322.183134541614, "event": "start"}, {"time": 322.1891084999079, "event": "show fixation"}, {"time": 322.69393904157914, "event": "show cue"}, {"time": 324.1982237499906, "event": "show fixation"}, {"time": 324.70603729155846, "event": "start sound"}, {"time": 324.7062819165876, "event": "start decision window"}, {"time": 325.29505287494976, "event": "response"}, {"time": 327.02635574992746, "event": "done"}]}, {"trial": {"cue_direction": "left", "stimulus": "A|A", "correct_response": "f", "left_cue_condition": 0.3, "stimA_condition": 0.9, "response": "f", "performance": "Correct", "rt": 2.9917957083089277}, "events": [{"time": 327.03990091662854, "event": "initialize", "status": "ok"}, {"time": 327.03996762493625, "event": "start recording"}, {"time": 327.2803780415561, "event": "start"}, {"time": 327.2878118333174, "event": "show fixation"}, {"time": 327.7930456249742, "event": "show cue"}, {"time": 329.29939895833377, "event": "show fixation"}, {"time": 329.81692100001965, "event": "start sound"}, {"time": 329.81712508329656, "event": "start decision window"}, {"time": 330.75918779161293, "event": "response"}, {"time": 332.80892400001176, "event": "done"}]}, {"trial": {"cue_direction": "right", "stimulus": "A|A", "correct_response": "f", "left_cue_condition": 0.3, "stimA_condition": 0.9, "response": "f", "performance": "Correct", "rt": 3.231890458264388}, "events": [{"time": 332.82258195837494, "event": "initialize", "status": "ok"}, {"time": 332.8226407499751, "event": "start recording"}, {"time": 333.0531495416071, "event": "start"}, {"time": 333.05989420833066, "event": "show fixation"}, {"time": 333.5647832499817, "event": "show cue"}, {"time": 335.0810562915867, "event": "show fixation"}, {"time": 335.5890121249249, "event": "start sound"}, {"time": 335.589344625012, "event": "start decision window"}, {"time": 336.55886529153213, "event": "response"}, {"time": 338.8212374165887, "event": "done"}]}, {"trial": {"cue_direction": "left", "stimulus": "A|A", "correct_response": "f", "left_cue_condition": 0.3, "stimA_condition": 0.9, "response": "f", "performance": "Correct", "rt": 2.254849374992773}, "events": [{"time": 338.83505816652905, "event": "initialize", "status": "ok"}, {"time": 338.83511741657276, "event": "start recording"}, {"time": 339.07641283329576, "event": "start"}, {"time": 339.08316716656554, "event": "show fixation"}, {"time": 339.58865449996665, "event": "show cue"}, {"time": 341.09375508339144, "event": "show fixation"}, {"time": 341.60350666660815, "event": "start sound"}, {"time": 341.60375295835547, "event": "start decision window"}, {"time": 342.1432541249087, "event": "response"}, {"time": 343.8586049999576, "event": "done"}]}, {"trial": {"cue_direction": "right", "stimulus": "A|A", "correct_response": "f", "left_cue_condition": 0.3, "stimA_condition": 0.9, "response": "f", "performance": "Correct", "rt": 2.986889791674912}, "events": [{"time": 343.87102270836476, "event": "initialize", "status": "ok"}, {"time": 343.8710839166306, "event": "start recording"}, {"time": 344.1094549165573, "event": "start"}, {"time": 344.1161075833952, "event": "show fixation"}, {"time": 344.6212882916443, "event": "show cue"}, {"time": 346.1266116666375, "event": "show fixation"}, {"time": 346.63439087499864, "event": "start sound"}, {"time": 346.63462220830843, "event": "start decision window"}, {"time": 347.17537224991247, "event": "response"}, {"time": 349.6215139583219, "event": "done"}]}, {"trial": {"cue_direction": "right", "stimulus": "B|A", "correct_response": "f", "left_cue_condition": 0.3, "stimA_condition": 0.9, "response": "f", "performance": "Correct", "rt": 3.0762180415913463}, "events": [{"time": 349.63503970834427, "event": "initialize", "status": "ok"}, {"time": 349.63509145833086, "event": "start recording"}, {"time": 349.8701494166162, "event": "start"}, {"time": 349.8778257915983, "event": "show fixation"}, {"time": 350.38259816658683, "event": "show cue"}, {"time": 351.8876330415951, "event": "show fixation"}, {"time": 352.39511070831213, "event": "start sound"}, {"time": 352.3953081249492, "event": "start decision window"}, {"time": 353.62315337499604, "event": "response"}, {"time": 355.47152829158586, "event": "done"}]}, {"trial": {"cue_direction": "right", "stimulus": "A|A", "correct_response": "f", "left_cue_condition": 0.3, "stimA_condition": 0.9, "response": "f", "performance": "Correct", "rt": 2.454098124988377}, "events": [{"time": 355.4856799583649, "event": "initialize", "status": "ok"}, {"time": 355.4857366249198, "event": "start recording"}, {"time": 355.729100583354, "event": "start"}, {"time": 355.7367196249543, "event": "show fixation"}, {"time": 356.24198270833585, "event": "show cue"}, {"time": 357.746884416556, "event": "show fixation"}, {"time": 358.25470379157923, "event": "start sound"}, {"time": 358.2549199583009, "event": "start decision window"}, {"time": 358.9914674166357, "event": "response"}, {"time": 360.7090203749249, "event": "done"}]}, {"trial": {"cue_direction": "left", "stimulus": "A|A", "correct_response": "f", "left_cue_condition": 0.3, "stimA_condition": 0.9, "response": "f", "performance": "Correct", "rt": 2.9170679583912715}, "events": [{"time": 360.7229824583046, "event": "initialize", "status": "ok"}, {"time": 360.72304862493183, "event": "start recording"}, {"time": 360.9616282916395, "event": "start"}, {"time": 360.968869791599, "event": "show fixation"}, {"time": 361.4732789165573, "event": "show cue"}, {"time": 362.9781643333845, "event": "show fixation"}, {"time": 363.48732304153964, "event": "start sound"}, {"time": 363.4875748750055, "event": "start decision window"}, {"time": 364.06352366658393, "event": "response"}, {"time": 366.40464545832947, "event": "done"}]}, {"trial": {"cue_direction": "left", "stimulus": "A|A", "correct_response": "f", "left_cue_condition": 0.3, "stimA_condition": 0.9, "response": "f", "performance": "Correct", "rt": 2.855134791578166}, "events": [{"time": 366.4179744999856, "event": "initialize", "status": "ok"}, {"time": 366.41803895833436, "event": "start recording"}, {"time": 366.62768470833544, "event": "start"}, {"time": 366.63306770834606, "event": "show fixation"}, {"time": 367.13747254153714, "event": "show cue"}, {"time": 368.6418171249097, "event": "show fixation"}, {"time": 369.1496086665429, "event": "start sound"}, {"time": 369.14978329162113, "event": "start decision window"}, {"time": 369.79155124991667, "event": "response"}, {"time": 372.0049203749513, "event": "done"}]}, {"trial": {"cue_direction": "right", "stimulus": "B|A", "correct_response": "f", "left_cue_condition": 0.3, "stimA_condition": 0.9, "response": "f", "performance": "Correct", "rt": 3.0898114583687857}, "events": [{"time": 372.0188723333413, "event": "initialize", "status": "ok"}, {"time": 372.0189266249072, "event": "start recording"}, {"time": 372.26717825001106, "event": "start"}, {"time": 372.2736738749081, "event": "show fixation"}, {"time": 372.77782329160254, "event": "show cue"}, {"time": 374.2826972915791, "event": "show fixation"}, {"time": 374.79041033331305, "event": "start sound"}, {"time": 374.7906158333644, "event": "start decision window"}, {"time": 375.9035788750043, "event": "response"}, {"time": 377.8804288749816, "event": "done"}]}, {"trial": {"cue_direction": "right", "stimulus": "A|B", "correct_response": "j", "left_cue_condition": 0.3, "stimA_condition": 0.9, "response": "j", "performance": "Correct", "rt": 3.566582166706212}, "events": [{"time": 377.8938174166251, "event": "initialize", "status": "ok"}, {"time": 377.8938719165744, "event": "start recording"}, {"time": 378.13290391664486, "event": "start"}, {"time": 378.1401424165815, "event": "show fixation"}, {"time": 378.644369541551, "event": "show cue"}, {"time": 380.15072945831344, "event": "show fixation"}, {"time": 380.65835095837247, "event": "start sound"}, {"time": 380.6585663333535, "event": "start decision window"}, {"time": 382.21577062492725, "event": "response"}, {"time": 384.22515095828567, "event": "done"}]}, {"trial": {"cue_direction": "left", "stimulus": "A|A", "correct_response": "f", "left_cue_condition": 0.3, "stimA_condition": 0.9, "response": "f", "performance": "Correct", "rt": 2.14796454180032}, "events": [{"time": 384.2381143749226, "event": "initialize", "status": "ok"}, {"time": 384.23817483335733, "event": "start recording"}, {"time": 384.47897287493106, "event": "start"}, {"time": 384.4866734999232, "event": "show fixation"}, {"time": 384.9922812082805, "event": "show cue"}, {"time": 386.4973007083172, "event": "show fixation"}, {"time": 387.0048042915296, "event": "start sound"}, {"time": 387.0050560833188, "event": "start decision window"}, {"time": 387.551809916622, "event": "response"}, {"time": 389.15302354155574, "event": "done"}]}, {"trial": {"cue_direction": "right", "stimulus": "A|B", "correct_response": "j", "left_cue_condition": 0.3, "stimA_condition": 0.9, "response": "j", "performance": "Correct", "rt": 2.937664750032127}, "events": [{"time": 389.16636499995366, "event": "initialize", "status": "ok"}, {"time": 389.1664197499631, "event": "start recording"}, {"time": 389.39611195831094, "event": "start"}, {"time": 389.4035463749897, "event": "show fixation"}, {"time": 389.90901508333627, "event": "show cue"}, {"time": 391.41492808330804, "event": "show fixation"}, {"time": 391.9224717083853, "event": "start sound"}, {"time": 391.9226776249707, "event": "start decision window"}, {"time": 392.9757804166293, "event": "response"}, {"time": 394.86034449993167, "event": "done"}]}, {"trial": {"cue_direction": "left", "stimulus": "A|A", "correct_response": "f", "left_cue_condition": 0.3, "stimA_condition": 0.9, "response": "f", "performance": "Correct", "rt": 3.774049249943346}, "events": [{"time": 394.8736879583448, "event": "initialize", "status": "ok"}, {"time": 394.87377324991394, "event": "start recording"}, {"time": 395.10864891659, "event": "start"}, {"time": 395.11533562501427, "event": "show fixation"}, {"time": 395.62025404162705, "event": "show cue"}, {"time": 397.12650466663763, "event": "show fixation"}, {"time": 397.6344183749752, "event": "start sound"}, {"time": 397.63461804157123, "event": "start decision window"}, {"time": 399.4956725833472, "event": "response"}, {"time": 401.40867129154503, "event": "done"}]}, {"trial": {"cue_direction": "right", "stimulus": "A|A", "correct_response": "f", "left_cue_condition": 0.3, "stimA_condition": 0.9, "response": "f", "performance": "Correct", "rt": 2.966629166621715}, "events": [{"time": 401.4219046665821, "event": "initialize", "status": "ok"}, {"time": 401.42196333338507, "event": "start recording"}, {"time": 401.66286808333825, "event": "start"}, {"time": 401.67014212498907, "event": "show fixation"}, {"time": 402.17541804153007, "event": "show cue"}, {"time": 403.67983191658277, "event": "show fixation"}, {"time": 404.18739324994385, "event": "start sound"}, {"time": 404.18758245836943, "event": "start decision window"}, {"time": 404.87991466664243, "event": "response"}, {"time": 407.15421370835975, "event": "done"}]}, {"trial": {"cue_direction": "left", "stimulus": "A|A", "correct_response": "f", "left_cue_condition": 0.3, "stimA_condition": 0.9, "response": "f", "performance": "Correct", "rt": 2.4429712500423193}, "events": [{"time": 407.1674311249517, "event": "initialize", "status": "ok"}, {"time": 407.16749725001864, "event": "start recording"}, {"time": 407.4071426666342, "event": "start"}, {"time": 407.4142244165996, "event": "show fixation"}, {"time": 407.91933858336415, "event": "show cue"}, {"time": 409.4236881249817, "event": "show fixation"}, {"time": 409.93124308332335, "event": "start sound"}, {"time": 409.9314393333625, "event": "start decision window"}, {"time": 410.43205083336215, "event": "response"}, {"time": 412.374413750018, "event": "done"}]}, {"trial": {"cue_direction": "left", "stimulus": "A|A", "correct_response": "f", "left_cue_condition": 0.3, "stimA_condition": 0.9, "response": "f", "performance": "Correct", "rt": 3.114657041616738}, "events": [{"time": 412.3871016249759, "event": "initialize", "status": "ok"}, {"time": 412.38716441660654, "event": "start recording"}, {"time": 412.63458983332384, "event": "start"}, {"time": 412.6419492083369, "event": "show fixation"}, {"time": 413.147185541573, "event": "show cue"}, {"time": 414.65160049998667, "event": "show fixation"}, {"time": 415.15928566653747, "event": "start sound"}, {"time": 415.1594824999338, "event": "start decision window"}, {"time": 415.91212004155386, "event": "response"}, {"time": 418.27414158335887, "event": "done"}]}, {"trial": {"cue_direction": "right", "stimulus": "A|A", "correct_response": "f", "left_cue_condition": 0.3, "stimA_condition": 0.9, "response": "f", "performance": "Correct", "rt": 3.0526321249781176}, "events": [{"time": 418.2873352499446, "event": "initialize", "status": "ok"}, {"time": 418.28739537496585, "event": "start recording"}, {"time": 418.52595962490886, "event": "start"}, {"time": 418.53341716655996, "event": "show fixation"}, {"time": 419.03887424990535, "event": "show cue"}, {"time": 420.54404104163405, "event": "show fixation"}, {"time": 421.0521475415444, "event": "start sound"}, {"time": 421.05235316662584, "event": "start decision window"}, {"time": 422.03982224990614, "event": "response"}, {"time": 424.1049880000064, "event": "done"}]}], "practice_data": [], "window": [1920, 1080], "bonus": 14.52}