{"config_number": 0, "parameters": {"points_per_cent": 2, "time_limit": 5, "correct_responses": ["f", "j"], "combination_num": 8, "gaze_tolerance": 1.5, "triggers": "<triggers.Triggers object at 0x159529070>"}, "main_data": [{"trial": {"cue_direction": "right", "stimulus": "A|A", "correct_response": "f", "left_cue_condition": 0.3, "stimA_condition": 0.9, "response": "f", "performance": "Correct", "rt": 3.232138291816227}, "events": [{"time": 249.9720777083421, "event": "initialize", "status": "ok"}, {"time": 249.97234749991912, "event": "start recording"}, {"time": 250.18819395836908, "event": "start"}, {"time": 250.1969577500131, "event": "show fixation"}, {"time": 250.70149674999993, "event": "show cue"}, {"time": 252.20613620837685, "event": "show fixation"}, {"time": 252.77008766657673, "event": "start sound"}, {"time": 252.7703964165412, "event": "start decision window"}, {"time": 254.06249937496614, "event": "response"}, {"time": 256.0025352083612, "event": "done"}]}, {"trial": {"cue_direction": "left", "stimulus": "A|B", "correct_response": "f", "left_cue_condition": 0.3, "stimA_condition": 0.9, "response": "f", "performance": "Correct", "rt": 4.1224157916149125}, "events": [{"time": 256.0166300415294, "event": "initialize", "status": "ok"}, {"time": 256.0167059582891, "event": "start recording"}, {"time": 256.2532652915688, "event": "start"}, {"time": 256.25993162498344, "event": "show fixation"}, {"time": 256.76535033329856, "event": "show cue"}, {"time": 258.2704134165542, "event": "show fixation"}, {"time": 258.7780635416275, "event": "start sound"}, {"time": 258.7782752083149, "event": "start decision window"}, {"time": 260.870299916598, "event": "response"}, {"time": 262.90069291659165, "event": "done"}]}, {"trial": {"cue_direction": "right", "stimulus": "A|A", "correct_response": "f", "left_cue_condition": 0.3, "stimA_condition": 0.9, "response": "f", "performance": "Correct", "rt": 2.9446436666185036}, "events": [{"time": 262.914713999955, "event": "initialize", "status": "ok"}, {"time": 262.914791374933, "event": "start recording"}, {"time": 263.15550395834725, "event": "start"}, {"time": 263.1627949165413, "event": "show fixation"}, {"time": 263.66837791656144, "event": "show cue"}, {"time": 265.17320033337455, "event": "show fixation"}, {"time": 265.6809705415508, "event": "start sound"}, {"time": 265.68116933328565, "event": "start decision window"}, {"time": 266.4705639166059, "event": "response"}, {"time": 268.62581537500955, "event": "done"}]}, {"trial": {"cue_direction": "left", "stimulus": "A|A", "correct_response": "f", "left_cue_condition": 0.3, "stimA_condition": 0.9, "response": "f", "performance": "Correct", "rt": 3.4103627916192636}, "events": [{"time": 268.6396827499848, "event": "initialize", "status": "ok"}, {"time": 268.63975550001487, "event": "start recording"}, {"time": 268.87839149998035, "event": "start"}, {"time": 268.88343091658317, "event": "show fixation"}, {"time": 269.38872524991166, "event": "show cue"}, {"time": 270.8930627083173, "event": "show fixation"}, {"time": 271.4025711666327, "event": "start sound"}, {"time": 271.40277537493967, "event": "start decision window"}, {"time": 272.74252079159487, "event": "response"}, {"time": 274.8131400415441, "event": "done"}]}, {"trial": {"cue_direction": "left", "stimulus": "A|A", "correct_response": "f", "left_cue_condition": 0.3, "stimA_condition": 0.9, "response": "f", "performance": "Correct", "rt": 2.8854468332137913}, "events": [{"time": 274.82659812492784, "event": "initialize", "status": "ok"}, {"time": 274.8266685415292, "event": "start recording"}, {"time": 275.06548483332153, "event": "start"}, {"time": 275.0728923333809, "event": "show fixation"}, {"time": 275.5784378333483, "event": "show cue"}, {"time": 277.0837383749895, "event": "show fixation"}, {"time": 277.59480495832395, "event": "start sound"}, {"time": 277.59500116657, "event": "start decision window"}, {"time": 278.28670850000344, "event": "response"}, {"time": 280.4804498333251, "event": "done"}]}, {"trial": {"cue_direction": "right", "stimulus": "B|A", "correct_response": "f", "left_cue_condition": 0.3, "stimA_condition": 0.9, "response": "f", "performance": "Correct", "rt": 3.4055375832831487}, "events": [{"time": 280.49391404155176, "event": "initialize", "status": "ok"}, {"time": 280.4939887499204, "event": "start recording"}, {"time": 280.7033953749342, "event": "start"}, {"time": 280.70853974996135, "event": "show fixation"}, {"time": 281.21348191658035, "event": "show cue"}, {"time": 282.71774654160254, "event": "show fixation"}, {"time": 283.2274003333878, "event": "start sound"}, {"time": 283.2276814165525, "event": "start decision window"}, {"time": 284.49465920834336, "event": "response"}, {"time": 286.633220833377, "event": "done"}]}, {"trial": {"cue_direction": "left", "stimulus": "B|A", "correct_response": "j", "left_cue_condition": 0.3, "stimA_condition": 0.9, "response": "j", "performance": "Correct", "rt": 3.6144952500471845}, "events": [{"time": 286.64663279161323, "event": "initialize", "status": "ok"}, {"time": 286.646691083326, "event": "start recording"}, {"time": 286.88537604163866, "event": "start"}, {"time": 286.89267895836383, "event": "show fixation"}, {"time": 287.3982118333224, "event": "show cue"}, {"time": 288.9031439166283, "event": "show fixation"}, {"time": 289.4107034999179, "event": "start sound"}, {"time": 289.410930041573, "event": "start decision window"}, {"time": 291.14250633330084, "event": "response"}, {"time": 293.0254271249287, "event": "done"}]}, {"trial": {"cue_direction": "left", "stimulus": "A|A", "correct_response": "f", "left_cue_condition": 0.3, "stimA_condition": 0.9, "response": "f", "performance": "Correct", "rt": 3.8301667500054464}, "events": [{"time": 293.03861733328085, "event": "initialize", "status": "ok"}, {"time": 293.03867891663685, "event": "start recording"}, {"time": 293.27330179163255, "event": "start"}, {"time": 293.28018204157706, "event": "show fixation"}, {"time": 293.7856737499824, "event": "show cue"}, {"time": 295.2904976665741, "event": "show fixation"}, {"time": 295.79853379155975, "event": "start sound"}, {"time": 295.79879229154903, "event": "start decision window"}, {"time": 297.806396583328, "event": "response"}, {"time": 299.6289616249269, "event": "done"}]}, {"trial": {"cue_direction": "right", "stimulus": "A|A", "correct_response": "f", "left_cue_condition": 0.3, "stimA_condition": 0.9, "response": "f", "performance": "Correct", "rt": 3.4176014168187976}, "events": [{"time": 299.64190162497107, "event": "initialize", "status": "ok"}, {"time": 299.64196762500796, "event": "start recording"}, {"time": 299.8828991249902, "event": "start"}, {"time": 299.89026566653047, "event": "show fixation"}, {"time": 300.39466179162264, "event": "show cue"}, {"time": 301.89879412495065, "event": "show fixation"}, {"time": 302.4064046249259, "event": "start sound"}, {"time": 302.40660141652916, "event": "start decision window"}, {"time": 303.63867404160555, "event": "response"}, {"time": 305.82420495839324, "event": "done"}]}, {"trial": {"cue_direction": "left", "stimulus": "A|B", "correct_response": "f", "left_cue_condition": 0.3, "stimA_condition": 0.9, "response": "f", "performance": "Correct", "rt": 2.44321970816236}, "events": [{"time": 305.8370689583244, "event": "initialize", "status": "ok"}, {"time": 305.83713037497364, "event": "start recording"}, {"time": 306.071671249927, "event": "start"}, {"time": 306.07771808328107, "event": "show fixation"}, {"time": 306.5826585832983, "event": "show cue"}, {"time": 308.08812016656157, "event": "show fixation"}, {"time": 308.5956948333187, "event": "start sound"}, {"time": 308.59589316661004, "event": "start decision window"}, {"time": 309.50283212494105, "event": "response"}, {"time": 311.03911512496416, "event": "done"}]}, {"trial": {"cue_direction": "right", "stimulus": "A|A", "correct_response": "f", "left_cue_condition": 0.3, "stimA_condition": 0.9, "response": "f", "performance": "Correct", "rt": 2.702182708424516}, "events": [{"time": 311.05231591663323, "event": "initialize", "status": "ok"}, {"time": 311.0523699999321, "event": "start recording"}, {"time": 311.29534295829944, "event": "start"}, {"time": 311.30297620838974, "event": "show fixation"}, {"time": 311.80837445834186, "event": "show cue"}, {"time": 313.3128709999146, "event": "show fixation"}, {"time": 313.82071029162034, "event": "start sound"}, {"time": 313.8209558749804, "event": "start decision window"}, {"time": 314.72656179161277, "event": "response"}, {"time": 316.5231407500105, "event": "done"}]}, {"trial": {"cue_direction": "right", "stimulus": "A|B", "correct_response": "j", "left_cue_condition": 0.3, "stimA_condition": 0.9, "response": "j", "performance": "Correct", "rt": 2.6269353750394657}, "events": [{"time": 316.53609395830426, "event": "initialize", "status": "ok"}, {"time": 316.5361536249984, "event": "start recording"}, {"time": 316.77816062490456, "event": "start"}, {"time": 316.78556904161815, "event": "show fixation"}, {"time": 317.29093579156324, "event": "show cue"}, {"time": 318.7961167083122, "event": "show fixation"}, {"time": 319.30394512496423, "event": "start sound"}, {"time": 319.30414920835756, "event": "start decision window"}, {"time": 320.3430328749819, "event": "response"}, {"time": 321.931088458281, "event": "done"}]}, {"trial": {"cue_direction": "right", "stimulus": "A|A", "correct_response": "f", "left_cue_condition": 0.3, "stimA_condition": 0.9, "response": "f", "performance": "Correct", "rt": 2.3200723332120106}, "events": [{"time": 321.9443717915565, "event": "initialize", "status": "ok"}, {"time": 321.9444377083564, "event": "start recording"}, {"time": 322.183134541614, "event": "start"}, {"time": 322.1891084999079, "event": "show fixation"}, {"time": 322.69393904157914, "event": "show cue"}, {"time": 324.1982237499906, "event": "show fixation"}, {"time": 324.70603729155846, "event": "start sound"}, {"time": 324.7062819165876, "event": "start decision window"}, {"time": 325.29505287494976, "event": "response"}, {"time": 327.02635574992746, "event": "done"}]}, {"trial": {"cue_direction": "left", "stimulus": "A|A", "correct_response": "f", "left_cue_condition": 0.3, "stimA_condition": 0.9, "response": "f", "performance": "Correct", "rt": 2.9917957083089277}, "events": [{"time": 327.03990091662854, "event": "initialize", "status": "ok"}, {"time": 327.03996762493625, "event": "start recording"}, {"time": 327.2803780415561, "event": "start"}, {"time": 327.2878118333174, "event": "show fixation"}, {"time": 327.7930456249742, "event": "show cue"}, {"time": 329.29939895833377, "event": "show fixation"}, {"time": 329.81692100001965, "event": "start sound"}, {"time": 329.81712508329656, "event": "start decision window"}, {"time": 330.75918779161293, "event": "response"}, {"time": 332.80892400001176, "event": "done"}]}, {"trial": {"cue_direction": "right", "stimulus": "A|A", "correct_response": "f", "left_cue_condition": 0.3, "stimA_condition": 0.9, "response": "f", "performance": "Correct", "rt": 3.231890458264388}, "events": [{"time": 332.82258195837494, "event": "initialize", "status": "ok"}, {"time": 332.8226407499751, "event": "start recording"}, {"time": 333.0531495416071, "event": "start"}, {"time": 333.05989420833066, "event": "show fixation"}, {"time": 333.5647832499817, "event": "show cue"}, {"time": 335.0810562915867, "event": "show fixation"}, {"time": 335.5890121249249, "event": "start sound"}, {"time": 335.589344625012, "event": "start decision window"}, {"time": 336.55886529153213, "event": "response"}, {"time": 338.8212374165887, "event": "done"}]}, {"trial": {"cue_direction": "left", "stimulus": "A|A", "correct_response": "f", "left_cue_condition": 0.3, "stimA_condition": 0.9, "response": "f", "performance": "Correct", "rt": 2.254849374992773}, "events": [{"time": 338.83505816652905, "event": "initialize", "status": "ok"}, {"time": 338.83511741657276, "event": "start recording"}, {"time": 339.07641283329576, "event": "start"}, {"time": 339.08316716656554, "event": "show fixation"}, {"time": 339.58865449996665, "event": "show cue"}, {"time": 341.09375508339144, "event": "show fixation"}, {"time": 341.60350666660815, "event": "start sound"}, {"time": 341.60375295835547, "event": "start decision window"}, {"time": 342.1432541249087, "event": "response"}, {"time": 343.8586049999576, "event": "done"}]}, {"trial": {"cue_direction": "right", "stimulus": "A|A", "correct_response": "f", "left_cue_condition": 0.3, "stimA_condition": 0.9, "response": "f", "performance": "Correct", "rt": 2.986889791674912}, "events": [{"time": 343.87102270836476, "event": "initialize", "status": "ok"}, {"time": 343.8710839166306, "event": "start recording"}, {"time": 344.1094549165573, "event": "start"}, {"time": 344.1161075833952, "event": "show fixation"}, {"time": 344.6212882916443, "event": "show cue"}, {"time": 346.1266116666375, "event": "show fixation"}, {"time": 346.63439087499864, "event": "start sound"}, {"time": 346.63462220830843, "event": "start decision window"}, {"time": 347.17537224991247, "event": "response"}, {"time": 349.6215139583219, "event": "done"}]}, {"trial": {"cue_direction": "right", "stimulus": "B|A", "correct_response": "f", "left_cue_condition": 0.3, "stimA_condition": 0.9, "response": "f", "performance": "Correct", "rt": 3.0762180415913463}, "events": [{"time": 349.63503970834427, "event": "initialize", "status": "ok"}, {"time": 349.63509145833086, "event": "start recording"}, {"time": 349.8701494166162, "event": "start"}, {"time": 349.8778257915983, "event": "show fixation"}, {"time": 350.38259816658683, "event": "show cue"}, {"time": 351.8876330415951, "event": "show fixation"}, {"time": 352.39511070831213, "event": "start sound"}, {"time": 352.3953081249492, "event": "start decision window"}, {"time": 353.62315337499604, "event": "response"}, {"time": 355.47152829158586, "event": "done"}]}, {"trial": {"cue_direction": "right", "stimulus": "A|A", "correct_response": "f", "left_cue_condition": 0.3, "stimA_condition": 0.9, "response": "f", "performance": "Correct", "rt": 2.454098124988377}, "events": [{"time": 355.4856799583649, "event": "initialize", "status": "ok"}, {"time": 355.4857366249198, "event": "start recording"}, {"time": 355.729100583354, "event": "start"}, {"time": 355.7367196249543, "event": "show fixation"}, {"time": 356.24198270833585, "event": "show cue"}, {"time": 357.746884416556, "event": "show fixation"}, {"time": 358.25470379157923, "event": "start sound"}, {"time": 358.2549199583009, "event": "start decision window"}, {"time": 358.9914674166357, "event": "response"}, {"time": 360.7090203749249, "event": "done"}]}, {"trial": {"cue_direction": "left", "stimulus": "A|A", "correct_response": "f", "left_cue_condition": 0.3, "stimA_condition": 0.9, "response": "f", "performance": "Correct", "rt": 2.9170679583912715}, "events": [{"time": 360.7229824583046, "event": "initialize", "status": "ok"}, {"time": 360.72304862493183, "event": "start recording"}, {"time": 360.9616282916395, "event": "start"}, {"time": 360.968869791599, "event": "show fixation"}, {"time": 361.4732789165573, "event": "show cue"}, {"time": 362.9781643333845, "event": "show fixation"}, {"time": 363.48732304153964, "event": "start sound"}, {"time": 363.4875748750055, "event": "start decision window"}, {"time": 364.06352366658393, "event": "response"}, {"time": 366.40464545832947, "event": "done"}]}, {"trial": {"cue_direction": "left", "stimulus": "A|A", "correct_response": "f", "left_cue_condition": 0.3, "stimA_condition": 0.9, "response": "f", "performance": "Correct", "rt": 2.855134791578166}, "events": [{"time": 366.4179744999856, "event": "initialize", "status": "ok"}, {"time": 366.41803895833436, "event": "start recording"}, {"time": 366.62768470833544, "event": "start"}, {"time": 366.63306770834606, "event": "show fixation"}, {"time": 367.13747254153714, "event": "show cue"}, {"time": 368.6418171249097, "event": "show fixation"}, {"time": 369.1496086665429, "event": "start sound"}, {"time": 369.14978329162113, "event": "start decision window"}, {"time": 369.79155124991667, "event": "response"}, {"time": 372.0049203749513, "event": "done"}]}, {"trial": {"cue_direction": "right", "stimulus": "B|A", "correct_response": "f", "left_cue_condition": 0.3, "stimA_condition": 0.9, "response": "f", "performance": "Correct", "rt": 3.0898114583687857}, "events": [{"time": 372.0188723333413, "event": "initialize", "status": "ok"}, {"time": 372.0189266249072, "event": "start recording"}, {"time": 372.26717825001106, "event": "start"}, {"time": 372.2736738749081, "event": "show fixation"}, {"time": 372.77782329160254, "event": "show cue"}, {"time": 374.2826972915791, "event": "show fixation"}, {"time": 374.79041033331305, "event": "start sound"}, {"time": 374.7906158333644, "event": "start decision window"}, {"time": 375.9035788750043, "event": "response"}, {"time": 377.8804288749816, "event": "done"}]}, {"trial": {"cue_direction": "right", "stimulus": "A|B", "correct_response": "j", "left_cue_condition": 0.3, "stimA_condition": 0.9, "response": "j", "performance": "Correct", "rt": 3.566582166706212}, "events": [{"time": 377.8938174166251, "event": "initialize", "status": "ok"}, {"time": 377.8938719165744, "event": "start recording"}, {"time": 378.13290391664486, "event": "start"}, {"time": 378.1401424165815, "event": "show fixation"}, {"time": 378.644369541551, "event": "show cue"}, {"time": 380.15072945831344, "event": "show fixation"}, {"time": 380.65835095837247, "event": "start sound"}, {"time": 380.6585663333535, "event": "start decision window"}, {"time": 382.21577062492725, "event": "response"}, {"time": 384.22515095828567, "event": "done"}]}, {"trial": {"cue_direction": "left", "stimulus": "A|A", "correct_response": "f", "left_cue_condition": 0.3, "stimA_condition": 0.9, "response": "f", "performance": "Correct", "rt": 2.14796454180032}, "events": [{"time": 384.2381143749226, "event": "initialize", "status": "ok"}, {"time": 384.23817483335733, "event": "start recording"}, {"time": 384.47897287493106, "event": "start"}, {"time": 384.4866734999232, "event": "show fixation"}, {"time": 384.9922812082805, "event": "show cue"}, {"time": 386.4973007083172, "event": "show fixation"}, {"time": 387.0048042915296, "event": "start sound"}, {"time": 387.0050560833188, "event": "start decision window"}, {"time": 387.551809916622, "event": "response"}, {"time": 389.15302354155574, "event": "done"}]}, {"trial": {"cue_direction": "right", "stimulus": "A|B", "correct_response": "j", "left_cue_condition": 0.3, "stimA_condition": 0.9, "response": "j", "performance": "Correct", "rt": 2.937664750032127}, "events": [{"time": 389.16636499995366, "event": "initialize", "status": "ok"}, {"time": 389.1664197499631, "event": "start recording"}, {"time": 389.39611195831094, "event": "start"}, {"time": 389.4035463749897, "event": "show fixation"}, {"time": 389.90901508333627, "event": "show cue"}, {"time": 391.41492808330804, "event": "show fixation"}, {"time": 391.9224717083853, "event": "start sound"}, {"time": 391.9226776249707, "event": "start decision window"}, {"time": 392.9757804166293, "event": "response"}, {"time": 394.86034449993167, "event": "done"}]}, {"trial": {"cue_direction": "left", "stimulus": "A|A", "correct_response": "f", "left_cue_condition": 0.3, "stimA_condition": 0.9, "response": "f", "performance": "Correct", "rt": 3.774049249943346}, "events": [{"time": 394.8736879583448, "event": "initialize", "status": "ok"}, {"time": 394.87377324991394, "event": "start recording"}, {"time": 395.10864891659, "event": "start"}, {"time": 395.11533562501427, "event": "show fixation"}, {"time": 395.62025404162705, "event": "show cue"}, {"time": 397.12650466663763, "event": "show fixation"}, {"time": 397.6344183749752, "event": "start sound"}, {"time": 397.63461804157123, "event": "start decision window"}, {"time": 399.4956725833472, "event": "response"}, {"time": 401.40867129154503, "event": "done"}]}, {"trial": {"cue_direction": "right", "stimulus": "A|A", "correct_response": "f", "left_cue_condition": 0.3, "stimA_condition": 0.9, "response": "f", "performance": "Correct", "rt": 2.966629166621715}, "events": [{"time": 401.4219046665821, "event": "initialize", "status": "ok"}, {"time": 401.42196333338507, "event": "start recording"}, {"time": 401.66286808333825, "event": "start"}, {"time": 401.67014212498907, "event": "show fixation"}, {"time": 402.17541804153007, "event": "show cue"}, {"time": 403.67983191658277, "event": "show fixation"}, {"time": 404.18739324994385, "event": "start sound"}, {"time": 404.18758245836943, "event": "start decision window"}, {"time": 404.87991466664243, "event": "response"}, {"time": 407.15421370835975, "event": "done"}]}, {"trial": {"cue_direction": "left", "stimulus": "A|A", "correct_response": "f", "left_cue_condition": 0.3, "stimA_condition": 0.9, "response": "f", "performance": "Correct", "rt": 2.4429712500423193}, "events": [{"time": 407.1674311249517, "event": "initialize", "status": "ok"}, {"time": 407.16749725001864, "event": "start recording"}, {"time": 407.4071426666342, "event": "start"}, {"time": 407.4142244165996, "event": "show fixation"}, {"time": 407.91933858336415, "event": "show cue"}, {"time": 409.4236881249817, "event": "show fixation"}, {"time": 409.93124308332335, "event": "start sound"}, {"time": 409.9314393333625, "event": "start decision window"}, {"time": 410.43205083336215, "event": "response"}, {"time": 412.374413750018, "event": "done"}]}, {"trial": {"cue_direction": "left", "stimulus": "A|A", "correct_response": "f", "left_cue_condition": 0.3, "stimA_condition": 0.9, "response": "f", "performance": "Correct", "rt": 3.114657041616738}, "events": [{"time": 412.3871016249759, "event": "initialize", "status": "ok"}, {"time": 412.38716441660654, "event": "start recording"}, {"time": 412.63458983332384, "event": "start"}, {"time": 412.6419492083369, "event": "show fixation"}, {"time": 413.147185541573, "event": "show cue"}, {"time": 414.65160049998667, "event": "show fixation"}, {"time": 415.15928566653747, "event": "start sound"}, {"time": 415.1594824999338, "event": "start decision window"}, {"time": 415.91212004155386, "event": "response"}, {"time": 418.27414158335887, "event": "done"}]}, {"trial": {"cue_direction": "right", "stimulus": "A|A", "correct_response": "f", "left_cue_condition": 0.3, "stimA_condition": 0.9, "response": "f", "performance": "Correct", "rt": 3.0526321249781176}, "events": [{"time": 418.2873352499446, "event": "initialize", "status": "ok"}, {"time": 418.28739537496585, "event": "start recording"}, {"time": 418.52595962490886, "event": "start"}, {"time": 418.53341716655996, "event": "show fixation"}, {"time": 419.03887424990535, "event": "show cue"}, {"time": 420.54404104163405, "event": "show fixation"}, {"time": 421.0521475415444, "event": "start sound"}, {"time": 421.05235316662584, "event": "start decision window"}, {"time": 422.03982224990614, "event": "response"}, {"time": 424.1049880000064, "event": "done"}]}, {"trial": {"cue_direction": "left", "stimulus": "A|B", "correct_response": "f", "left_cue_condition": 0.9, "stimA_condition": 0.9, "response": "f", "performance": "Correct", "rt": 4.695795958279632}, "events": [{"time": 520.0667261249619, "event": "initialize", "status": "ok"}, {"time": 520.0671794165391, "event": "start recording"}, {"time": 520.2947194583248, "event": "start"}, {"time": 520.3013228332857, "event": "show fixation"}, {"time": 520.8065477083437, "event": "show cue"}, {"time": 522.3117805833463, "event": "show fixation"}, {"time": 522.8194703332847, "event": "start sound"}, {"time": 522.8196762083098, "event": "start decision window"}, {"time": 525.2414622083306, "event": "response"}, {"time": 527.5154750415822, "event": "done"}]}, {"trial": {"cue_direction": "left", "stimulus": "A|A", "correct_response": "f", "left_cue_condition": 0.9, "stimA_condition": 0.9, "response": "f", "performance": "Correct", "rt": 2.880206708330661}, "events": [{"time": 527.5291510833194, "event": "initialize", "status": "ok"}, {"time": 527.5292141250102, "event": "start recording"}, {"time": 527.7700206665322, "event": "start"}, {"time": 527.7770741665736, "event": "show fixation"}, {"time": 528.2827241666382, "event": "show cue"}, {"time": 529.7880585415987, "event": "show fixation"}, {"time": 530.2961589165498, "event": "start sound"}, {"time": 530.2963718333049, "event": "start decision window"}, {"time": 530.8495056249667, "event": "response"}, {"time": 533.1765804166207, "event": "done"}]}, {"trial": {"cue_direction": "left", "stimulus": "A|A", "correct_response": "f", "left_cue_condition": 0.9, "stimA_condition": 0.9, "response": "f", "performance": "Correct", "rt": 2.5931868749903515}, "events": [{"time": 533.1902227916289, "event": "initialize", "status": "ok"}, {"time": 533.1902792499168, "event": "start recording"}, {"time": 533.4302787915803, "event": "start"}, {"time": 533.4366254166234, "event": "show fixation"}, {"time": 533.9410555833019, "event": "show cue"}, {"time": 535.4462558749365, "event": "show fixation"}, {"time": 535.954200624954, "event": "start sound"}, {"time": 535.9543859999394, "event": "start decision window"}, {"time": 536.4656628749799, "event": "response"}, {"time": 538.5475774166407, "event": "done"}]}, {"trial": {"cue_direction": "left", "stimulus": "B|A", "correct_response": "j", "left_cue_condition": 0.9, "stimA_condition": 0.9, "response": "j", "performance": "Correct", "rt": 3.3858839999884367}, "events": [{"time": 538.561517208349, "event": "initialize", "status": "ok"}, {"time": 538.5616182915401, "event": "start recording"}, {"time": 538.7624409166165, "event": "start"}, {"time": 538.7666528749978, "event": "show fixation"}, {"time": 539.2712977916235, "event": "show cue"}, {"time": 540.7757877083495, "event": "show fixation"}, {"time": 541.2830652915873, "event": "start sound"}, {"time": 541.2833032499766, "event": "start decision window"}, {"time": 543.025595041574, "event": "response"}, {"time": 544.669189624954, "event": "done"}]}, {"trial": {"cue_direction": "left", "stimulus": "A|A", "correct_response": "f", "left_cue_condition": 0.9, "stimA_condition": 0.9, "response": "f", "performance": "Correct", "rt": 3.3268960000714287}, "events": [{"time": 544.6822347500129, "event": "initialize", "status": "ok"}, {"time": 544.682295916602, "event": "start recording"}, {"time": 544.9236022916157, "event": "start"}, {"time": 544.930764458375, "event": "show fixation"}, {"time": 545.4357796666445, "event": "show cue"}, {"time": 546.9437490833225, "event": "show fixation"}, {"time": 547.4517627083696, "event": "start sound"}, {"time": 547.4519629165297, "event": "start decision window"}, {"time": 548.401461499976, "event": "response"}, {"time": 550.7788609999698, "event": "done"}]}, {"trial": {"cue_direction": "left", "stimulus": "A|A", "correct_response": "f", "left_cue_condition": 0.9, "stimA_condition": 0.9, "response": "f", "performance": "Correct", "rt": 2.9072303333086893}, "events": [{"time": 550.7918280833401, "event": "initialize", "status": "ok"}, {"time": 550.7918810833944, "event": "start recording"}, {"time": 551.0275304999668, "event": "start"}, {"time": 551.0344446249073, "event": "show fixation"}, {"time": 551.5395432499936, "event": "show cue"}, {"time": 553.0457787082996, "event": "show fixation"}, {"time": 553.5539470416261, "event": "start sound"}, {"time": 553.5541372916196, "event": "start decision window"}, {"time": 554.1137759583071, "event": "response"}, {"time": 556.4613696249435, "event": "done"}]}, {"trial": {"cue_direction": "left", "stimulus": "A|A", "correct_response": "f", "left_cue_condition": 0.9, "stimA_condition": 0.9, "response": "f", "performance": "Correct", "rt": 3.0510203749872744}, "events": [{"time": 556.474437833298, "event": "initialize", "status": "ok"}, {"time": 556.4745017082896, "event": "start recording"}, {"time": 556.7119899166282, "event": "start"}, {"time": 556.7172179582994, "event": "show fixation"}, {"time": 557.2231063332874, "event": "show cue"}, {"time": 558.7290088332957, "event": "show fixation"}, {"time": 559.23682250001, "event": "start sound"}, {"time": 559.2370297500165, "event": "start decision window"}, {"time": 560.1135831666179, "event": "response"}, {"time": 562.2880522499327, "event": "done"}]}, {"trial": {"cue_direction": "left", "stimulus": "A|A", "correct_response": "f", "left_cue_condition": 0.9, "stimA_condition": 0.9, "response": "f", "performance": "Correct", "rt": 2.935379458242096}, "events": [{"time": 562.30152095831, "event": "initialize", "status": "ok"}, {"time": 562.3015982499346, "event": "start recording"}, {"time": 562.5369750832906, "event": "start"}, {"time": 562.5439159165835, "event": "show fixation"}, {"time": 563.0493760833051, "event": "show cue"}, {"time": 564.5533249166328, "event": "show fixation"}, {"time": 565.061150124995, "event": "start sound"}, {"time": 565.0613511665724, "event": "start decision window"}, {"time": 566.4737195000052, "event": "response"}, {"time": 567.9967345832847, "event": "done"}]}, {"trial": {"cue_direction": "left", "stimulus": "A|A", "correct_response": "f", "left_cue_condition": 0.9, "stimA_condition": 0.9, "response": "f", "performance": "Correct", "rt": 2.388348624925129}, "events": [{"time": 568.0100741249043, "event": "initialize", "status": "ok"}, {"time": 568.0101357083768, "event": "start recording"}, {"time": 568.2527545833727, "event": "start"}, {"time": 568.2594532499788, "event": "show fixation"}, {"time": 568.7646211249521, "event": "show cue"}, {"time": 570.2780020416249, "event": "show fixation"}, {"time": 570.786214999971, "event": "start sound"}, {"time": 570.7864277915796, "event": "start decision window"}, {"time": 571.2259698749986, "event": "response"}, {"time": 573.1747789166402, "event": "done"}]}, {"trial": {"cue_direction": "left", "stimulus": "A|B", "correct_response": "f", "left_cue_condition": 0.9, "stimA_condition": 0.9, "response": "f", "performance": "Correct", "rt": 3.7213654167717323}, "events": [{"time": 573.1881002915325, "event": "initialize", "status": "ok"}, {"time": 573.1881621249486, "event": "start recording"}, {"time": 573.4299264582805, "event": "start"}, {"time": 573.4366535416339, "event": "show fixation"}, {"time": 573.9414549582871, "event": "show cue"}, {"time": 575.4460359583609, "event": "show fixation"}, {"time": 575.9536007499555, "event": "start sound"}, {"time": 575.9538091249997, "event": "start decision window"}, {"time": 577.9381002499722, "event": "response"}, {"time": 579.6751775415614, "event": "done"}]}, {"trial": {"cue_direction": "left", "stimulus": "A|A", "correct_response": "f", "left_cue_condition": 0.9, "stimA_condition": 0.9, "response": "f", "performance": "Correct", "rt": 2.486547708278522}, "events": [{"time": 579.6886247500079, "event": "initialize", "status": "ok"}, {"time": 579.6886844165856, "event": "start recording"}, {"time": 579.9264028749894, "event": "start"}, {"time": 579.9330989583395, "event": "show fixation"}, {"time": 580.4371528750053, "event": "show cue"}, {"time": 581.9424047499197, "event": "show fixation"}, {"time": 582.4500286666444, "event": "start sound"}, {"time": 582.4503007915337, "event": "start decision window"}, {"time": 582.9862016666448, "event": "response"}, {"time": 584.9368497083196, "event": "done"}]}, {"trial": {"cue_direction": "left", "stimulus": "A|A", "correct_response": "f", "left_cue_condition": 0.9, "stimA_condition": 0.9, "response": "f", "performance": "Correct", "rt": 2.328220625058748}, "events": [{"time": 584.9501359999413, "event": "initialize", "status": "ok"}, {"time": 584.9501997083426, "event": "start recording"}, {"time": 585.1878504999913, "event": "start"}, {"time": 585.1942048333585, "event": "show fixation"}, {"time": 585.6990802915534, "event": "show cue"}, {"time": 587.2044497500174, "event": "show fixation"}, {"time": 587.7121533333557, "event": "start sound"}, {"time": 587.7123574583093, "event": "start decision window"}, {"time": 588.1942121249158, "event": "response"}, {"time": 590.040580541594, "event": "done"}]}, {"trial": {"cue_direction": "left", "stimulus": "A|A", "correct_response": "f", "left_cue_condition": 0.9, "stimA_condition": 0.9, "response": "f", "performance": "Correct", "rt": 2.3209124165587127}, "events": [{"time": 590.0542944583576, "event": "initialize", "status": "ok"}, {"time": 590.0543559165671, "event": "start recording"}, {"time": 590.2995784583036, "event": "start"}, {"time": 590.3040608332958, "event": "show fixation"}, {"time": 590.8091445832979, "event": "show cue"}, {"time": 592.3143476665718, "event": "show fixation"}, {"time": 592.8221798749873, "event": "start sound"}, {"time": 592.8223893333925, "event": "start decision window"}, {"time": 593.1621795833344, "event": "response"}, {"time": 595.1433040415868, "event": "done"}]}, {"trial": {"cue_direction": "left", "stimulus": "A|A", "correct_response": "f", "left_cue_condition": 0.9, "stimA_condition": 0.9, "response": "f", "performance": "Correct", "rt": 2.1926864583510906}, "events": [{"time": 595.1567588333273, "event": "initialize", "status": "ok"}, {"time": 595.1568112083478, "event": "start recording"}, {"time": 595.3966640833532, "event": "start"}, {"time": 595.4032265415881, "event": "show fixation"}, {"time": 595.9082843333017, "event": "show cue"}, {"time": 597.4131809165701, "event": "show fixation"}, {"time": 597.9210119165946, "event": "start sound"}, {"time": 597.9212132499088, "event": "start decision window"}, {"time": 598.2903472083854, "event": "response"}, {"time": 600.1139035833767, "event": "done"}]}, {"trial": {"cue_direction": "left", "stimulus": "A|A", "correct_response": "f", "left_cue_condition": 0.9, "stimA_condition": 0.9, "response": "f", "performance": "Correct", "rt": 2.948991541750729}, "events": [{"time": 600.1275157083292, "event": "initialize", "status": "ok"}, {"time": 600.1275774999522, "event": "start recording"}, {"time": 600.3719045832986, "event": "start"}, {"time": 600.3785753333941, "event": "show fixation"}, {"time": 600.8832362499088, "event": "show cue"}, {"time": 602.388444583281, "event": "show fixation"}, {"time": 602.8964387499727, "event": "start sound"}, {"time": 602.8966495000059, "event": "start decision window"}, {"time": 604.3302323333919, "event": "response"}, {"time": 605.8456436665729, "event": "done"}]}, {"trial": {"cue_direction": "left", "stimulus": "A|A", "correct_response": "f", "left_cue_condition": 0.9, "stimA_condition": 0.9, "response": "f", "performance": "Correct", "rt": 2.1668723333859816}, "events": [{"time": 605.8590458749095, "event": "initialize", "status": "ok"}, {"time": 605.8591086249799, "event": "start recording"}, {"time": 606.0943509583594, "event": "start"}, {"time": 606.1015198749956, "event": "show fixation"}, {"time": 606.6069781666156, "event": "show cue"}, {"time": 608.1118294999469, "event": "show fixation"}, {"time": 608.619693125016, "event": "start sound"}, {"time": 608.619918750017, "event": "start decision window"}, {"time": 609.2664837082848, "event": "response"}, {"time": 610.7867934999522, "event": "done"}]}, {"trial": {"cue_direction": "right", "stimulus": "A|B", "correct_response": "j", "left_cue_condition": 0.9, "stimA_condition": 0.9, "response": "j", "performance": "Correct", "rt": 2.4459462916711345}, "events": [{"time": 610.8007797499886, "event": "initialize", "status": "ok"}, {"time": 610.8008429999463, "event": "start recording"}, {"time": 611.0354432915337, "event": "start"}, {"time": 611.042473083362, "event": "show fixation"}, {"time": 611.5479413333815, "event": "show cue"}, {"time": 613.05320795835, "event": "show fixation"}, {"time": 613.560932791559, "event": "start sound"}, {"time": 613.56111720833, "event": "start decision window"}, {"time": 614.0345187499188, "event": "response"}, {"time": 616.0070659165503, "event": "done"}]}, {"trial": {"cue_direction": "left", "stimulus": "A|A", "correct_response": "f", "left_cue_condition": 0.9, "stimA_condition": 0.9, "response": "f", "performance": "Correct", "rt": 3.902536333305761}, "events": [{"time": 616.0209085416282, "event": "initialize", "status": "ok"}, {"time": 616.020985124982, "event": "start recording"}, {"time": 616.2611164583359, "event": "start"}, {"time": 616.2680539166322, "event": "show fixation"}, {"time": 616.7732931665378, "event": "show cue"}, {"time": 618.2784014999634, "event": "show fixation"}, {"time": 618.7860631250078, "event": "start sound"}, {"time": 618.7862722499995, "event": "start decision window"}, {"time": 620.7303790833103, "event": "response"}, {"time": 622.6888109582942, "event": "done"}]}, {"trial": {"cue_direction": "right", "stimulus": "B|A", "correct_response": "f", "left_cue_condition": 0.9, "stimA_condition": 0.9, "response": "f", "performance": "Correct", "rt": 3.2020058332709596}, "events": [{"time": 622.7018456249498, "event": "initialize", "status": "ok"}, {"time": 622.7019235416083, "event": "start recording"}, {"time": 622.9380756249884, "event": "start"}, {"time": 622.945488999947, "event": "show fixation"}, {"time": 623.4508288333891, "event": "show cue"}, {"time": 624.9560978749068, "event": "show fixation"}, {"time": 625.4635693333112, "event": "start sound"}, {"time": 625.4637806249084, "event": "start decision window"}, {"time": 626.3948170833755, "event": "response"}, {"time": 628.6657887499314, "event": "done"}]}, {"trial": {"cue_direction": "left", "stimulus": "A|A", "correct_response": "f", "left_cue_condition": 0.9, "stimA_condition": 0.9, "response": "f", "performance": "Correct", "rt": 2.567664625006728}, "events": [{"time": 628.6790947082918, "event": "initialize", "status": "ok"}, {"time": 628.6791550833732, "event": "start recording"}, {"time": 628.8879912499106, "event": "start"}, {"time": 628.8936603333568, "event": "show fixation"}, {"time": 629.3983080416219, "event": "show cue"}, {"time": 630.9117041665595, "event": "show fixation"}, {"time": 631.4196327083046, "event": "start sound"}, {"time": 631.419867749908, "event": "start decision window"}, {"time": 632.3144805832999, "event": "response"}, {"time": 633.9875345416367, "event": "done"}]}, {"trial": {"cue_direction": "left", "stimulus": "A|A", "correct_response": "f", "left_cue_condition": 0.9, "stimA_condition": 0.9, "response": "f", "performance": "Correct", "rt": 2.5177575416164473}, "events": [{"time": 634.0011189583456, "event": "initialize", "status": "ok"}, {"time": 634.0011804583482, "event": "start recording"}, {"time": 634.2413132915972, "event": "start"}, {"time": 634.2486408333061, "event": "show fixation"}, {"time": 634.7538634999655, "event": "show cue"}, {"time": 636.2585035415832, "event": "show fixation"}, {"time": 636.7688070415752, "event": "start sound"}, {"time": 636.7690151665593, "event": "start decision window"}, {"time": 637.6186204999685, "event": "response"}, {"time": 639.2867772083264, "event": "done"}]}, {"trial": {"cue_direction": "left", "stimulus": "A|A", "correct_response": "f", "left_cue_condition": 0.9, "stimA_condition": 0.9, "response": "f", "performance": "Correct", "rt": 2.6940197916701436}, "events": [{"time": 639.3004752499983, "event": "initialize", "status": "ok"}, {"time": 639.3005450415658, "event": "start recording"}, {"time": 639.534534916631, "event": "start"}, {"time": 639.5419488749467, "event": "show fixation"}, {"time": 640.0473999583628, "event": "show cue"}, {"time": 641.5534547915449, "event": "show fixation"}, {"time": 642.0612133333925, "event": "start sound"}, {"time": 642.0614249582868, "event": "start decision window"}, {"time": 642.8026548749767, "event": "response"}, {"time": 644.7554468333255, "event": "done"}]}, {"trial": {"cue_direction": "left", "stimulus": "A|A", "correct_response": "f", "left_cue_condition": 0.9, "stimA_condition": 0.9, "response": "f", "performance": "Correct", "rt": 2.393684749957174}, "events": [{"time": 644.7686205833452, "event": "initialize", "status": "ok"}, {"time": 644.7686982083833, "event": "start recording"}, {"time": 644.9783717915416, "event": "start"}, {"time": 644.9847224999685, "event": "show fixation"}, {"time": 645.489996499964, "event": "show cue"}, {"time": 646.9951283333357, "event": "show fixation"}, {"time": 647.5030493749073, "event": "start sound"}, {"time": 647.5032544999849, "event": "start decision window"}, {"time": 648.1309003332863, "event": "response"}, {"time": 649.8969416249311, "event": "done"}]}, {"trial": {"cue_direction": "left", "stimulus": "A|A", "correct_response": "f", "left_cue_condition": 0.9, "stimA_condition": 0.9, "response": "f", "performance": "Correct", "rt": 2.4459478749195114}, "events": [{"time": 649.9101427915739, "event": "initialize", "status": "ok"}, {"time": 649.9102166666416, "event": "start recording"}, {"time": 650.1427630415419, "event": "start"}, {"time": 650.1500149999047, "event": "show fixation"}, {"time": 650.654426208348, "event": "show cue"}, {"time": 652.1590209583519, "event": "show fixation"}, {"time": 652.6675577915739, "event": "start sound"}, {"time": 652.6677512915339, "event": "start decision window"}, {"time": 652.9870659165317, "event": "response"}, {"time": 655.113701791619, "event": "done"}]}, {"trial": {"cue_direction": "left", "stimulus": "A|A", "correct_response": "f", "left_cue_condition": 0.9, "stimA_condition": 0.9, "response": "f", "performance": "Correct", "rt": 2.752615416655317}, "events": [{"time": 655.1274235832971, "event": "initialize", "status": "ok"}, {"time": 655.1274930415675, "event": "start recording"}, {"time": 655.3654016666114, "event": "start"}, {"time": 655.3707051665988, "event": "show fixation"}, {"time": 655.8758308333345, "event": "show cue"}, {"time": 657.3815994582837, "event": "show fixation"}, {"time": 657.889192749979, "event": "start sound"}, {"time": 657.8893861665856, "event": "start decision window"}, {"time": 658.4191233332967, "event": "response"}, {"time": 660.6420052499743, "event": "done"}]}, {"trial": {"cue_direction": "left", "stimulus": "B|A", "correct_response": "j", "left_cue_condition": 0.9, "stimA_condition": 0.9, "response": "j", "performance": "Correct", "rt": 3.4024898334173486}, "events": [{"time": 660.6553971249377, "event": "initialize", "status": "ok"}, {"time": 660.6554645833094, "event": "start recording"}, {"time": 660.8917715415591, "event": "start"}, {"time": 660.8988134165993, "event": "show fixation"}, {"time": 661.4042611665791, "event": "show cue"}, {"time": 662.9094013749855, "event": "show fixation"}, {"time": 663.4199155833339, "event": "start sound"}, {"time": 663.4201164166443, "event": "start decision window"}, {"time": 664.7390608333517, "event": "response"}, {"time": 666.8226092082914, "event": "done"}]}, {"trial": {"cue_direction": "left", "stimulus": "A|A", "correct_response": "f", "left_cue_condition": 0.9, "stimA_condition": 0.9, "response": "f", "performance": "Correct", "rt": 3.4210952499415725}, "events": [{"time": 666.8360115415417, "event": "initialize", "status": "ok"}, {"time": 666.8360731250141, "event": "start recording"}, {"time": 667.0759572916431, "event": "start"}, {"time": 667.0828933749581, "event": "show fixation"}, {"time": 667.588403166621, "event": "show cue"}, {"time": 669.0936442083912, "event": "show fixation"}, {"time": 669.6025460415985, "event": "start sound"}, {"time": 669.6027535833418, "event": "start decision window"}, {"time": 670.618963249959, "event": "response"}, {"time": 673.0238515833626, "event": "done"}]}, {"trial": {"cue_direction": "left", "stimulus": "A|A", "correct_response": "f", "left_cue_condition": 0.9, "stimA_condition": 0.9, "response": "f", "performance": "Correct", "rt": 2.860950083239004}, "events": [{"time": 673.0368004583288, "event": "initialize", "status": "ok"}, {"time": 673.0368784583407, "event": "start recording"}, {"time": 673.2724549582927, "event": "start"}, {"time": 673.2790498749819, "event": "show fixation"}, {"time": 673.784544999944, "event": "show cue"}, {"time": 675.289853166556, "event": "show fixation"}, {"time": 675.7975165415555, "event": "start sound"}, {"time": 675.7977339583449, "event": "start decision window"}, {"time": 676.3073177499464, "event": "response"}, {"time": 678.6586867083097, "event": "done"}]}, {"trial": {"cue_direction": "left", "stimulus": "A|A", "correct_response": "f", "left_cue_condition": 0.9, "stimA_condition": 0.9, "response": "f", "performance": "Correct", "rt": 2.9933870831737295}, "events": [{"time": 678.6722222915851, "event": "initialize", "status": "ok"}, {"time": 678.6723005415406, "event": "start recording"}, {"time": 678.8803120416123, "event": "start"}, {"time": 678.8861174165504, "event": "show fixation"}, {"time": 679.3907479583286, "event": "show cue"}, {"time": 680.9049067082815, "event": "show fixation"}, {"time": 681.4128412499558, "event": "start sound"}, {"time": 681.4130405415781, "event": "start decision window"}, {"time": 682.3791920833755, "event": "response"}, {"time": 684.4064299999736, "event": "done"}]}, {"trial": {"cue_direction": "left", "stimulus": "A|A", "correct_response": "f", "left_cue_condition": 0.9, "stimA_condition": 0.9, "response": "f", "performance": "Correct", "rt": 2.6117531249765307}, "events": [{"time": 684.4195713750087, "event": "initialize", "status": "ok"}, {"time": 684.4196407916024, "event": "start recording"}, {"time": 684.6545789166121, "event": "start"}, {"time": 684.6617315832991, "event": "show fixation"}, {"time": 685.1670977083268, "event": "show cue"}, {"time": 686.6720739165321, "event": "show fixation"}, {"time": 687.1798669582931, "event": "start sound"}, {"time": 687.1800647083437, "event": "start decision window"}, {"time": 687.5154964583926, "event": "response"}, {"time": 689.7918201666325, "event": "done"}]}, {"trial": {"cue_direction": "right", "stimulus": "B|B", "correct_response": "j", "left_cue_condition": 0.3, "stimA_condition": 0.5, "response": "j", "performance": "Correct", "rt": 2.940329499891959}, "events": [{"time": 711.729864416644, "event": "initialize", "status": "ok"}, {"time": 711.7301837083651, "event": "start recording"}, {"time": 711.9221274999436, "event": "start"}, {"time": 711.9295068749925, "event": "show fixation"}, {"time": 712.4352407916449, "event": "show cue"}, {"time": 713.940225624945, "event": "show fixation"}, {"time": 714.4486866665538, "event": "start sound"}, {"time": 714.4488829583861, "event": "start decision window"}, {"time": 715.1559558333829, "event": "response"}, {"time": 717.3892149582971, "event": "done"}]}, {"trial": {"cue_direction": "left", "stimulus": "A|A", "correct_response": "f", "left_cue_condition": 0.3, "stimA_condition": 0.5, "response": "f", "performance": "Correct", "rt": 2.1178692918037996}, "events": [{"time": 717.4046154165408, "event": "initialize", "status": "ok"}, {"time": 717.404680208303, "event": "start recording"}, {"time": 717.643434166559, "event": "start"}, {"time": 717.6510236666072, "event": "show fixation"}, {"time": 718.1563981665531, "event": "show cue"}, {"time": 719.6609799165744, "event": "show fixation"}, {"time": 720.1712130833184, "event": "start sound"}, {"time": 720.1714243749157, "event": "start decision window"}, {"time": 720.7081259165425, "event": "response"}, {"time": 722.2892963333288, "event": "done"}]}, {"trial": {"cue_direction": "left", "stimulus": "B|B", "correct_response": "j", "left_cue_condition": 0.3, "stimA_condition": 0.5, "response": "j", "performance": "Correct", "rt": 2.2503632499137893}, "events": [{"time": 722.3030860833824, "event": "initialize", "status": "ok"}, {"time": 722.3031777082942, "event": "start recording"}, {"time": 722.542422333383, "event": "start"}, {"time": 722.5492795833852, "event": "show fixation"}, {"time": 723.0544197915588, "event": "show cue"}, {"time": 724.5634624583181, "event": "show fixation"}, {"time": 725.0698583750054, "event": "start sound"}, {"time": 725.0700674583204, "event": "start decision window"}, {"time": 725.7480534582864, "event": "response"}, {"time": 727.3204346249113, "event": "done"}]}, {"trial": {"cue_direction": "left", "stimulus": "B|B", "correct_response": "j", "left_cue_condition": 0.3, "stimA_condition": 0.5, "response": "j", "performance": "Correct", "rt": 2.5965217916527763}, "events": [{"time": 727.3340330832871, "event": "initialize", "status": "ok"}, {"time": 727.3340950416168, "event": "start recording"}, {"time": 727.5726605833042, "event": "start"}, {"time": 727.579350624932, "event": "show fixation"}, {"time": 728.0844210833311, "event": "show cue"}, {"time": 729.5888465415919, "event": "show fixation"}, {"time": 730.0949617915321, "event": "start sound"}, {"time": 730.0951484165853, "event": "start decision window"}, {"time": 730.6280472915387, "event": "response"}, {"time": 732.6916719999863, "event": "done"}]}, {"trial": {"cue_direction": "right", "stimulus": "A|B", "correct_response": "j", "left_cue_condition": 0.3, "stimA_condition": 0.5, "response": "j", "performance": "Correct", "rt": 4.183513541705906}, "events": [{"time": 732.7038851249963, "event": "initialize", "status": "ok"}, {"time": 732.7039468749426, "event": "start recording"}, {"time": 732.942604291602, "event": "start"}, {"time": 732.9499727915972, "event": "show fixation"}, {"time": 733.4552437500097, "event": "show cue"}, {"time": 734.9604256665334, "event": "show fixation"}, {"time": 735.4712241665693, "event": "start sound"}, {"time": 735.4714265000075, "event": "start decision window"}, {"time": 737.2359584583901, "event": "response"}, {"time": 739.654943499947, "event": "done"}]}, {"trial": {"cue_direction": "right", "stimulus": "A|A", "correct_response": "f", "left_cue_condition": 0.3, "stimA_condition": 0.5, "response": "f", "performance": "Correct", "rt": 3.076969875022769}, "events": [{"time": 739.6677771249088, "event": "initialize", "status": "ok"}, {"time": 739.6678518749541, "event": "start recording"}, {"time": 739.9024300415767, "event": "start"}, {"time": 739.9087711250177, "event": "show fixation"}, {"time": 740.4141675415449, "event": "show cue"}, {"time": 741.9188704999397, "event": "show fixation"}, {"time": 742.4294926249422, "event": "start sound"}, {"time": 742.4296819999581, "event": "start decision window"}, {"time": 743.4682739583077, "event": "response"}, {"time": 745.5066535415826, "event": "done"}]}, {"trial": {"cue_direction": "left", "stimulus": "B|A", "correct_response": "j", "left_cue_condition": 0.3, "stimA_condition": 0.5, "response": "j", "performance": "Correct", "rt": 3.47490570822265}, "events": [{"time": 745.5203329166397, "event": "initialize", "status": "ok"}, {"time": 745.5203910833225, "event": "start recording"}, {"time": 745.7635809165658, "event": "start"}, {"time": 745.7704506249866, "event": "show fixation"}, {"time": 746.2754850415513, "event": "show cue"}, {"time": 747.7807042083004, "event": "show fixation"}, {"time": 748.288477333379, "event": "start sound"}, {"time": 748.2886882500025, "event": "start decision window"}, {"time": 750.1881748333108, "event": "response"}, {"time": 751.7635964583606, "event": "done"}]}, {"trial": {"cue_direction": "right", "stimulus": "B|B", "correct_response": "j", "left_cue_condition": 0.3, "stimA_condition": 0.5, "response": "j", "performance": "Correct", "rt": 2.8293627500534058}, "events": [{"time": 751.7771595416125, "event": "initialize", "status": "ok"}, {"time": 751.7772124166368, "event": "start recording"}, {"time": 752.0133561249822, "event": "start"}, {"time": 752.0205158332828, "event": "show fixation"}, {"time": 752.5258089165436, "event": "show cue"}, {"time": 754.0304215833312, "event": "show fixation"}, {"time": 754.5366689165821, "event": "start sound"}, {"time": 754.5368570833234, "event": "start decision window"}, {"time": 755.6363472082885, "event": "response"}, {"time": 757.366221791599, "event": "done"}]}, {"trial": {"cue_direction": "right", "stimulus": "A|A", "correct_response": "f", "left_cue_condition": 0.3, "stimA_condition": 0.5, "response": "f", "performance": "Correct", "rt": 2.6833143749972805}, "events": [{"time": 757.3799501250032, "event": "initialize", "status": "ok"}, {"time": 757.3800277499249, "event": "start recording"}, {"time": 757.6225715833716, "event": "start"}, {"time": 757.6294756665593, "event": "show fixation"}, {"time": 758.1334116249345, "event": "show cue"}, {"time": 759.6384152915562, "event": "show fixation"}, {"time": 760.1467875833623, "event": "start sound"}, {"time": 760.1469997083768, "event": "start decision window"}, {"time": 761.084246583283, "event": "response"}, {"time": 762.8303160415962, "event": "done"}]}, {"trial": {"cue_direction": "left", "stimulus": "A|A", "correct_response": "f", "left_cue_condition": 0.3, "stimA_condition": 0.5, "response": "f", "performance": "Correct", "rt": 3.698183666798286}, "events": [{"time": 762.8437658332987, "event": "initialize", "status": "ok"}, {"time": 762.8438352500089, "event": "start recording"}, {"time": 763.0841661249287, "event": "start"}, {"time": 763.0907511250116, "event": "show fixation"}, {"time": 763.5948055833578, "event": "show cue"}, {"time": 765.1006591665791, "event": "show fixation"}, {"time": 765.608398374985, "event": "start sound"}, {"time": 765.6086124165449, "event": "start decision window"}, {"time": 767.6045421250165, "event": "response"}, {"time": 769.3067981249187, "event": "done"}]}, {"trial": {"cue_direction": "left", "stimulus": "B|A", "correct_response": "j", "left_cue_condition": 0.3, "stimA_condition": 0.5, "response": "j", "performance": "Correct", "rt": 3.6295668333768845}, "events": [{"time": 769.3202055833535, "event": "initialize", "status": "ok"}, {"time": 769.3202604165999, "event": "start recording"}, {"time": 769.5468198750168, "event": "start"}, {"time": 769.5542772499612, "event": "show fixation"}, {"time": 770.0588167499518, "event": "show cue"}, {"time": 771.564002249972, "event": "show fixation"}, {"time": 772.0716940416023, "event": "start sound"}, {"time": 772.0719028332969, "event": "start decision window"}, {"time": 773.5406302083284, "event": "response"}, {"time": 775.7014718332794, "event": "done"}]}, {"trial": {"cue_direction": "right", "stimulus": "A|A", "correct_response": "f", "left_cue_condition": 0.3, "stimA_condition": 0.5, "response": "f", "performance": "Correct", "rt": 3.407445124932565}, "events": [{"time": 775.7149994582869, "event": "initialize", "status": "ok"}, {"time": 775.7150715416064, "event": "start recording"}, {"time": 775.923791749985, "event": "start"}, {"time": 775.9306812916184, "event": "show fixation"}, {"time": 776.4355546665611, "event": "show cue"}, {"time": 777.940768249915, "event": "show fixation"}, {"time": 778.4486374999397, "event": "start sound"}, {"time": 778.4488452916266, "event": "start decision window"}, {"time": 779.7645926666446, "event": "response"}, {"time": 781.8562932499917, "event": "done"}]}, {"trial": {"cue_direction": "left", "stimulus": "B|A", "correct_response": "j", "left_cue_condition": 0.3, "stimA_condition": 0.5, "response": "j", "performance": "Correct", "rt": 2.4025239582406357}, "events": [{"time": 781.8701553749852, "event": "initialize", "status": "ok"}, {"time": 781.8702161249239, "event": "start recording"}, {"time": 782.1056794583565, "event": "start"}, {"time": 782.1129468749277, "event": "show fixation"}, {"time": 782.6187134583015, "event": "show cue"}, {"time": 784.123524583294, "event": "show fixation"}, {"time": 784.6311345833819, "event": "start sound"}, {"time": 784.6313412499148, "event": "start decision window"}, {"time": 785.4288536666427, "event": "response"}, {"time": 787.0338672916405, "event": "done"}]}, {"trial": {"cue_direction": "right", "stimulus": "B|B", "correct_response": "j", "left_cue_condition": 0.3, "stimA_condition": 0.5, "response": "j", "performance": "Correct", "rt": 3.321986583294347}, "events": [{"time": 787.0463685833383, "event": "initialize", "status": "ok"}, {"time": 787.0464331249241, "event": "start recording"}, {"time": 787.2817990415497, "event": "start"}, {"time": 787.2874664583942, "event": "show fixation"}, {"time": 787.7928639582824, "event": "show cue"}, {"time": 789.2979179999093, "event": "show fixation"}, {"time": 789.8044490832835, "event": "start sound"}, {"time": 789.804669333389, "event": "start decision window"}, {"time": 790.6367058749311, "event": "response"}, {"time": 793.126659624977, "event": "done"}]}, {"trial": {"cue_direction": "right", "stimulus": "A|B", "correct_response": "j", "left_cue_condition": 0.3, "stimA_condition": 0.5, "response": "j", "performance": "Correct", "rt": 2.2550509583670646}, "events": [{"time": 793.140546333394, "event": "initialize", "status": "ok"}, {"time": 793.1405977916438, "event": "start recording"}, {"time": 793.3479054999771, "event": "start"}, {"time": 793.3541535416152, "event": "show fixation"}, {"time": 793.8593211666448, "event": "show cue"}, {"time": 795.3636052915826, "event": "show fixation"}, {"time": 795.8710048333742, "event": "start sound"}, {"time": 795.8711984165711, "event": "start decision window"}, {"time": 796.6048824583413, "event": "response"}, {"time": 798.1262527916115, "event": "done"}]}, {"trial": {"cue_direction": "right", "stimulus": "B|B", "correct_response": "j", "left_cue_condition": 0.3, "stimA_condition": 0.5, "response": "j", "performance": "Correct", "rt": 2.697091916576028}, "events": [{"time": 798.1395666250028, "event": "initialize", "status": "ok"}, {"time": 798.1396309583215, "event": "start recording"}, {"time": 798.3854534582933, "event": "start"}, {"time": 798.3922293332871, "event": "show fixation"}, {"time": 798.8970285415417, "event": "show cue"}, {"time": 800.4025038749678, "event": "show fixation"}, {"time": 800.9090028749779, "event": "start sound"}, {"time": 800.9092113749357, "event": "start decision window"}, {"time": 801.7566941250116, "event": "response"}, {"time": 803.606306624948, "event": "done"}]}, {"trial": {"cue_direction": "left", "stimulus": "B|B", "correct_response": "j", "left_cue_condition": 0.3, "stimA_condition": 0.5, "response": "j", "performance": "Correct", "rt": 2.7747490000911057}, "events": [{"time": 803.6196524165571, "event": "initialize", "status": "ok"}, {"time": 803.6197146249469, "event": "start recording"}, {"time": 803.8618147083325, "event": "start"}, {"time": 803.869405666599, "event": "show fixation"}, {"time": 804.3749455832876, "event": "show cue"}, {"time": 805.8799957499141, "event": "show fixation"}, {"time": 806.3874950833851, "event": "start sound"}, {"time": 806.38771095837, "event": "start decision window"}, {"time": 806.9730285415426, "event": "response"}, {"time": 809.1624623333337, "event": "done"}]}, {"trial": {"cue_direction": "right", "stimulus": "A|B", "correct_response": "j", "left_cue_condition": 0.3, "stimA_condition": 0.5, "response": "j", "performance": "Correct", "rt": 3.5914290833752602}, "events": [{"time": 809.1760431665462, "event": "initialize", "status": "ok"}, {"time": 809.1761110415682, "event": "start recording"}, {"time": 809.412207208341, "event": "start"}, {"time": 809.4182709165616, "event": "show fixation"}, {"time": 809.9233894165372, "event": "show cue"}, {"time": 811.4275233333465, "event": "show fixation"}, {"time": 811.93504904164, "event": "start sound"}, {"time": 811.9352765833028, "event": "start decision window"}, {"time": 813.2447454583598, "event": "response"}, {"time": 815.5267079999903, "event": "done"}]}, {"trial": {"cue_direction": "right", "stimulus": "A|B", "correct_response": "j", "left_cue_condition": 0.3, "stimA_condition": 0.5, "response": "j", "performance": "Correct", "rt": 2.6313288334058598}, "events": [{"time": 815.5406387083931, "event": "initialize", "status": "ok"}, {"time": 815.5406971665798, "event": "start recording"}, {"time": 815.7782628333662, "event": "start"}, {"time": 815.7852358749369, "event": "show fixation"}, {"time": 816.2902707916219, "event": "show cue"}, {"time": 817.7953767083818, "event": "show fixation"}, {"time": 818.3068931666203, "event": "start sound"}, {"time": 818.307116916636, "event": "start decision window"}, {"time": 818.7731817499734, "event": "response"}, {"time": 820.9384476249106, "event": "done"}]}, {"trial": {"cue_direction": "right", "stimulus": "A|A", "correct_response": "f", "left_cue_condition": 0.3, "stimA_condition": 0.5, "response": "f", "performance": "Correct", "rt": 2.990254166768864}, "events": [{"time": 820.9521103749285, "event": "initialize", "status": "ok"}, {"time": 820.9521654999116, "event": "start recording"}, {"time": 821.1909971249988, "event": "start"}, {"time": 821.1987217499409, "event": "show fixation"}, {"time": 821.7041472916026, "event": "show cue"}, {"time": 823.2096050415421, "event": "show fixation"}, {"time": 823.717476083315, "event": "start sound"}, {"time": 823.7176864165813, "event": "start decision window"}, {"time": 824.3652724166168, "event": "response"}, {"time": 826.7079427499557, "event": "done"}]}, {"trial": {"cue_direction": "right", "stimulus": "A|A", "correct_response": "f", "left_cue_condition": 0.3, "stimA_condition": 0.5, "response": "f", "performance": "Correct", "rt": 2.810884708422236}, "events": [{"time": 826.7212439165451, "event": "initialize", "status": "ok"}, {"time": 826.721307666623, "event": "start recording"}, {"time": 826.950402166578, "event": "start"}, {"time": 826.95752920839, "event": "show fixation"}, {"time": 827.4627116249176, "event": "show cue"}, {"time": 828.9680229583755, "event": "show fixation"}, {"time": 829.4757170416415, "event": "start sound"}, {"time": 829.4759294165997, "event": "start decision window"}, {"time": 830.1252639165614, "event": "response"}, {"time": 832.2868167916313, "event": "done"}]}, {"trial": {"cue_direction": "right", "stimulus": "B|A", "correct_response": "f", "left_cue_condition": 0.3, "stimA_condition": 0.5, "response": "f", "performance": "Correct", "rt": 4.098438291810453}, "events": [{"time": 832.3007171249483, "event": "initialize", "status": "ok"}, {"time": 832.3007838333724, "event": "start recording"}, {"time": 832.5383686249843, "event": "start"}, {"time": 832.5449899166124, "event": "show fixation"}, {"time": 833.0499207082903, "event": "show cue"}, {"time": 834.5548396249069, "event": "show fixation"}, {"time": 835.064872374991, "event": "start sound"}, {"time": 835.065072166617, "event": "start decision window"}, {"time": 837.005319125019, "event": "response"}, {"time": 839.1635126665933, "event": "done"}]}, {"trial": {"cue_direction": "left", "stimulus": "B|A", "correct_response": "j", "left_cue_condition": 0.3, "stimA_condition": 0.5, "response": "j", "performance": "Correct", "rt": 3.755477749975398}, "events": [{"time": 839.1767625833163, "event": "initialize", "status": "ok"}, {"time": 839.176826791605, "event": "start recording"}, {"time": 839.4162558749085, "event": "start"}, {"time": 839.4229749583174, "event": "show fixation"}, {"time": 839.9280368749751, "event": "show cue"}, {"time": 841.4324514166219, "event": "show fixation"}, {"time": 841.9525116665754, "event": "start sound"}, {"time": 841.9527110415511, "event": "start decision window"}, {"time": 843.2453560415888, "event": "response"}, {"time": 845.7081910833949, "event": "done"}]}, {"trial": {"cue_direction": "left", "stimulus": "B|B", "correct_response": "j", "left_cue_condition": 0.3, "stimA_condition": 0.5, "response": "j", "performance": "Correct", "rt": 3.924077708274126}, "events": [{"time": 845.7216036249883, "event": "initialize", "status": "ok"}, {"time": 845.7216638749233, "event": "start recording"}, {"time": 845.9561322083464, "event": "start"}, {"time": 845.9628297083545, "event": "show fixation"}, {"time": 846.4676930833375, "event": "show cue"}, {"time": 847.9726045000134, "event": "show fixation"}, {"time": 848.4800700832857, "event": "start sound"}, {"time": 848.4802886249963, "event": "start decision window"}, {"time": 850.2215225833934, "event": "response"}, {"time": 852.404368624906, "event": "done"}]}, {"trial": {"cue_direction": "right", "stimulus": "A|B", "correct_response": "j", "left_cue_condition": 0.3, "stimA_condition": 0.5, "response": "j", "performance": "Correct", "rt": 3.083671541651711}, "events": [{"time": 852.4177968750009, "event": "initialize", "status": "ok"}, {"time": 852.4178636665456, "event": "start recording"}, {"time": 852.6539712083759, "event": "start"}, {"time": 852.6607156249229, "event": "show fixation"}, {"time": 853.1665234999964, "event": "show cue"}, {"time": 854.6831960416166, "event": "show fixation"}, {"time": 855.1909763333388, "event": "start sound"}, {"time": 855.1911885833833, "event": "start decision window"}, {"time": 856.4696816665819, "event": "response"}, {"time": 858.2748628333211, "event": "done"}]}, {"trial": {"cue_direction": "left", "stimulus": "B|A", "correct_response": "j", "left_cue_condition": 0.3, "stimA_condition": 0.5, "response": "j", "performance": "Correct", "rt": 3.5528507083654404}, "events": [{"time": 858.2882261666236, "event": "initialize", "status": "ok"}, {"time": 858.28829149995, "event": "start recording"}, {"time": 858.516157999984, "event": "start"}, {"time": 858.5215169999283, "event": "show fixation"}, {"time": 859.0270449166419, "event": "show cue"}, {"time": 860.5343306665309, "event": "show fixation"}, {"time": 861.0422535416437, "event": "start sound"}, {"time": 861.042483041645, "event": "start decision window"}, {"time": 862.2453862082912, "event": "response"}, {"time": 864.5953371250071, "event": "done"}]}, {"trial": {"cue_direction": "left", "stimulus": "A|A", "correct_response": "f", "left_cue_condition": 0.3, "stimA_condition": 0.5, "response": "f", "performance": "Correct", "rt": 2.2069732083473355}, "events": [{"time": 864.6096387082944, "event": "initialize", "status": "ok"}, {"time": 864.6097072499106, "event": "start recording"}, {"time": 864.8519654583652, "event": "start"}, {"time": 864.858629333321, "event": "show fixation"}, {"time": 865.3638088332955, "event": "show cue"}, {"time": 866.8691956249531, "event": "show fixation"}, {"time": 867.3770194165409, "event": "start sound"}, {"time": 867.3772296250099, "event": "start decision window"}, {"time": 867.9656897499226, "event": "response"}, {"time": 869.5842048333725, "event": "done"}]}, {"trial": {"cue_direction": "right", "stimulus": "B|A", "correct_response": "f", "left_cue_condition": 0.3, "stimA_condition": 0.5, "response": "f", "performance": "Correct", "rt": 2.9857410000404343}, "events": [{"time": 869.5973960416159, "event": "initialize", "status": "ok"}, {"time": 869.5974477499258, "event": "start recording"}, {"time": 869.8375326666282, "event": "start"}, {"time": 869.8444241666002, "event": "show fixation"}, {"time": 870.3492729583522, "event": "show cue"}, {"time": 871.8543040415971, "event": "show fixation"}, {"time": 872.3618593749125, "event": "start sound"}, {"time": 872.362062958302, "event": "start decision window"}, {"time": 873.7898486666381, "event": "response"}, {"time": 875.347807541606, "event": "done"}]}, {"trial": {"cue_direction": "left", "stimulus": "A|B", "correct_response": "f", "left_cue_condition": 0.3, "stimA_condition": 0.5, "response": "f", "performance": "Correct", "rt": 3.943519499967806}, "events": [{"time": 875.36184675002, "event": "initialize", "status": "ok"}, {"time": 875.3619253333891, "event": "start recording"}, {"time": 875.5689508749638, "event": "start"}, {"time": 875.5743655415718, "event": "show fixation"}, {"time": 876.079285499989, "event": "show cue"}, {"time": 877.5836407499155, "event": "show fixation"}, {"time": 878.0912364165997, "event": "start sound"}, {"time": 878.0914315833943, "event": "start decision window"}, {"time": 879.8937437916175, "event": "response"}, {"time": 882.0349529165542, "event": "done"}]}, {"trial": {"cue_direction": "left", "stimulus": "A|A", "correct_response": "f", "left_cue_condition": 0.3, "stimA_condition": 0.5, "response": "f", "performance": "Correct", "rt": 2.655195416766219}, "events": [{"time": 882.0482776665594, "event": "initialize", "status": "ok"}, {"time": 882.0483585000038, "event": "start recording"}, {"time": 882.2872917082859, "event": "start"}, {"time": 882.2940754999872, "event": "show fixation"}, {"time": 882.7992197499843, "event": "show cue"}, {"time": 884.3043246249435, "event": "show fixation"}, {"time": 884.8121498749824, "event": "start sound"}, {"time": 884.8123565416317, "event": "start decision window"}, {"time": 885.373901291634, "event": "response"}, {"time": 887.4675539999735, "event": "done"}]}, {"trial": {"cue_direction": "left", "stimulus": "A|A", "correct_response": "f", "left_cue_condition": 0.5, "stimA_condition": 0.5, "response": "f", "performance": "Correct", "rt": 2.4848732500104234}, "events": [{"time": 912.9922508749878, "event": "initialize", "status": "ok"}, {"time": 912.9926140415482, "event": "start recording"}, {"time": 913.2178433333756, "event": "start"}, {"time": 913.2250122083351, "event": "show fixation"}, {"time": 913.730460416642, "event": "show cue"}, {"time": 915.2359455416445, "event": "show fixation"}, {"time": 915.7436532083666, "event": "start sound"}, {"time": 915.7438519166317, "event": "start decision window"}, {"time": 916.3421962499851, "event": "response"}, {"time": 918.2287289166125, "event": "done"}]}, {"trial": {"cue_direction": "right", "stimulus": "B|A", "correct_response": "f", "left_cue_condition": 0.5, "stimA_condition": 0.5, "response": "f", "performance": "Correct", "rt": 4.386721833259799}, "events": [{"time": 918.2418146665441, "event": "initialize", "status": "ok"}, {"time": 918.2418762500165, "event": "start recording"}, {"time": 918.4772275832947, "event": "start"}, {"time": 918.4847251665778, "event": "show fixation"}, {"time": 918.9907406666316, "event": "show cue"}, {"time": 920.4954664583784, "event": "show fixation"}, {"time": 921.0031728333561, "event": "start sound"}, {"time": 921.0033767916029, "event": "start decision window"}, {"time": 923.7024537916295, "event": "response"}, {"time": 925.3901015415322, "event": "done"}]}, {"trial": {"cue_direction": "right", "stimulus": "B|B", "correct_response": "j", "left_cue_condition": 0.5, "stimA_condition": 0.5, "response": "j", "performance": "Correct", "rt": 2.7747760417405516}, "events": [{"time": 925.4029001250165, "event": "initialize", "status": "ok"}, {"time": 925.4029547083192, "event": "start recording"}, {"time": 925.6425997916376, "event": "start"}, {"time": 925.6501044583274, "event": "show fixation"}, {"time": 926.1554724165471, "event": "show cue"}, {"time": 927.6606337083504, "event": "show fixation"}, {"time": 928.1671886666445, "event": "start sound"}, {"time": 928.1673854583642, "event": "start decision window"}, {"time": 929.3021666666027, "event": "response"}, {"time": 930.9421638749773, "event": "done"}]}, {"trial": {"cue_direction": "left", "stimulus": "A|B", "correct_response": "f", "left_cue_condition": 0.5, "stimA_condition": 0.5, "response": "f", "performance": "Correct", "rt": 2.8943687500432134}, "events": [{"time": 930.955568708363, "event": "initialize", "status": "ok"}, {"time": 930.9556229999289, "event": "start recording"}, {"time": 931.1855690833181, "event": "start"}, {"time": 931.1926590832882, "event": "show fixation"}, {"time": 931.6981019583764, "event": "show cue"}, {"time": 933.2039739999454, "event": "show fixation"}, {"time": 933.711767583387, "event": "start sound"}, {"time": 933.7119702500058, "event": "start decision window"}, {"time": 934.902427166584, "event": "response"}, {"time": 936.606341791572, "event": "done"}]}, {"trial": {"cue_direction": "right", "stimulus": "B|B", "correct_response": "j", "left_cue_condition": 0.5, "stimA_condition": 0.5, "response": "j", "performance": "Correct", "rt": 2.898832375067286}, "events": [{"time": 936.6201512499247, "event": "initialize", "status": "ok"}, {"time": 936.6202134999912, "event": "start recording"}, {"time": 936.859757124912, "event": "start"}, {"time": 936.8664795416407, "event": "show fixation"}, {"time": 937.3716270416044, "event": "show cue"}, {"time": 938.8767411250155, "event": "show fixation"}, {"time": 939.3833746665623, "event": "start sound"}, {"time": 939.3835841666441, "event": "start decision window"}, {"time": 940.550170750008, "event": "response"}, {"time": 942.282418833347, "event": "done"}]}, {"trial": {"cue_direction": "left", "stimulus": "B|B", "correct_response": "j", "left_cue_condition": 0.5, "stimA_condition": 0.5, "response": "j", "performance": "Correct", "rt": 2.8155924166785553}, "events": [{"time": 942.2957006249344, "event": "initialize", "status": "ok"}, {"time": 942.2957670416217, "event": "start recording"}, {"time": 942.533964791568, "event": "start"}, {"time": 942.540519291535, "event": "show fixation"}, {"time": 943.045933333342, "event": "show cue"}, {"time": 944.5509424583288, "event": "show fixation"}, {"time": 945.0577458749758, "event": "start sound"}, {"time": 945.0580293333624, "event": "start decision window"}, {"time": 946.3584953333484, "event": "response"}, {"time": 947.873623499996, "event": "done"}]}, {"trial": {"cue_direction": "right", "stimulus": "B|B", "correct_response": "j", "left_cue_condition": 0.5, "stimA_condition": 0.5, "response": "j", "performance": "Correct", "rt": 3.169932208256796}, "events": [{"time": 947.8868961249245, "event": "initialize", "status": "ok"}, {"time": 947.8869651665445, "event": "start recording"}, {"time": 948.125158333336, "event": "start"}, {"time": 948.1314596249722, "event": "show fixation"}, {"time": 948.6365805416135, "event": "show cue"}, {"time": 950.1408893750049, "event": "show fixation"}, {"time": 950.6501721666427, "event": "start sound"}, {"time": 950.6503726665396, "event": "start decision window"}, {"time": 952.142329291557, "event": "response"}, {"time": 953.8203067500144, "event": "done"}]}, {"trial": {"cue_direction": "left", "stimulus": "A|A", "correct_response": "f", "left_cue_condition": 0.5, "stimA_condition": 0.5, "response": "f", "performance": "Correct", "rt": 2.618037416599691}, "events": [{"time": 953.8336524165934, "event": "initialize", "status": "ok"}, {"time": 953.8337144165998, "event": "start recording"}, {"time": 954.0743916250067, "event": "start"}, {"time": 954.0792972500203, "event": "show fixation"}, {"time": 954.5852171665756, "event": "show cue"}, {"time": 956.089679458295, "event": "show fixation"}, {"time": 956.5998048749752, "event": "start sound"}, {"time": 956.6000678333221, "event": "start decision window"}, {"time": 957.5105397083098, "event": "response"}, {"time": 959.2181087083882, "event": "done"}]}, {"trial": {"cue_direction": "right", "stimulus": "B|A", "correct_response": "f", "left_cue_condition": 0.5, "stimA_condition": 0.5, "response": "f", "performance": "Correct", "rt": 3.901828833273612}, "events": [{"time": 959.231716249953, "event": "initialize", "status": "ok"}, {"time": 959.2317821249599, "event": "start recording"}, {"time": 959.4679552083835, "event": "start"}, {"time": 959.4743134583114, "event": "show fixation"}, {"time": 959.9801443333272, "event": "show cue"}, {"time": 961.4852184165502, "event": "show fixation"}, {"time": 961.9927656665677, "event": "start sound"}, {"time": 961.9929549165536, "event": "start decision window"}, {"time": 964.0385926249437, "event": "response"}, {"time": 965.8947863749927, "event": "done"}]}, {"trial": {"cue_direction": "left", "stimulus": "A|B", "correct_response": "f", "left_cue_condition": 0.5, "stimA_condition": 0.5, "response": "f", "performance": "Correct", "rt": 3.0107931250240654}, "events": [{"time": 965.9079442499205, "event": "initialize", "status": "ok"}, {"time": 965.9080069999909, "event": "start recording"}, {"time": 966.1429029165301, "event": "start"}, {"time": 966.1496659999248, "event": "show fixation"}, {"time": 966.655192416627, "event": "show cue"}, {"time": 968.1602049166104, "event": "show fixation"}, {"time": 968.6678492083447, "event": "start sound"}, {"time": 968.6680469166022, "event": "start decision window"}, {"time": 969.8227318749996, "event": "response"}, {"time": 971.6788426249987, "event": "done"}]}, {"trial": {"cue_direction": "right", "stimulus": "B|A", "correct_response": "f", "left_cue_condition": 0.5, "stimA_condition": 0.5, "response": "f", "performance": "Correct", "rt": 2.8242229166207835}, "events": [{"time": 971.6922875833698, "event": "initialize", "status": "ok"}, {"time": 971.6923612916144, "event": "start recording"}, {"time": 971.9279528333573, "event": "start"}, {"time": 971.9353155000135, "event": "show fixation"}, {"time": 972.4412098333705, "event": "show cue"}, {"time": 973.9458774166415, "event": "show fixation"}, {"time": 974.4533236665884, "event": "start sound"}, {"time": 974.4535244583385, "event": "start decision window"}, {"time": 975.1187851249706, "event": "response"}, {"time": 977.2777503749821, "event": "done"}]}, {"trial": {"cue_direction": "left", "stimulus": "B|A", "correct_response": "j", "left_cue_condition": 0.5, "stimA_condition": 0.5, "response": "j", "performance": "Correct", "rt": 3.3814526250353083}, "events": [{"time": 977.291036208393, "event": "initialize", "status": "ok"}, {"time": 977.2910968333017, "event": "start recording"}, {"time": 977.5249754165998, "event": "start"}, {"time": 977.5318472083891, "event": "show fixation"}, {"time": 978.0374127916293, "event": "show cue"}, {"time": 979.5426492500119, "event": "show fixation"}, {"time": 980.0503163749818, "event": "start sound"}, {"time": 980.0505534999538, "event": "start decision window"}, {"time": 981.0866016249638, "event": "response"}, {"time": 983.4320085415384, "event": "done"}]}, {"trial": {"cue_direction": "left", "stimulus": "B|A", "correct_response": "j", "left_cue_condition": 0.5, "stimA_condition": 0.5, "response": "j", "performance": "Correct", "rt": 3.2891740000341088}, "events": [{"time": 983.4453691665549, "event": "initialize", "status": "ok"}, {"time": 983.4454364583362, "event": "start recording"}, {"time": 983.6846775416052, "event": "start"}, {"time": 983.691246833303, "event": "show fixation"}, {"time": 984.1961991249118, "event": "show cue"}, {"time": 985.7018495833036, "event": "show fixation"}, {"time": 986.2093512082938, "event": "start sound"}, {"time": 986.2095589999808, "event": "start decision window"}, {"time": 987.5429114582948, "event": "response"}, {"time": 989.4987368750153, "event": "done"}]}, {"trial": {"cue_direction": "left", "stimulus": "B|B", "correct_response": "j", "left_cue_condition": 0.5, "stimA_condition": 0.5, "response": "j", "performance": "Correct", "rt": 4.061491708271205}, "events": [{"time": 989.5124197915429, "event": "initialize", "status": "ok"}, {"time": 989.5124951666221, "event": "start recording"}, {"time": 989.7554989582859, "event": "start"}, {"time": 989.7601509166416, "event": "show fixation"}, {"time": 990.2647842499427, "event": "show cue"}, {"time": 991.7700722916052, "event": "show fixation"}, {"time": 992.2764941249043, "event": "start sound"}, {"time": 992.27671429154, "event": "start decision window"}, {"time": 994.79892487498, "event": "response"}, {"time": 996.3382093333639, "event": "done"}]}, {"trial": {"cue_direction": "right", "stimulus": "B|A", "correct_response": "f", "left_cue_condition": 0.5, "stimA_condition": 0.5, "response": "f", "performance": "Correct", "rt": 3.4592695833416656}, "events": [{"time": 996.3520665833494, "event": "initialize", "status": "ok"}, {"time": 996.352151250001, "event": "start recording"}, {"time": 996.5890217915876, "event": "start"}, {"time": 996.5936065833084, "event": "show fixation"}, {"time": 997.0986696250038, "event": "show cue"}, {"time": 998.6056657499867, "event": "show fixation"}, {"time": 999.1135583749274, "event": "start sound"}, {"time": 999.1137954583392, "event": "start decision window"}, {"time": 1000.1750327500049, "event": "response"}, {"time": 1002.5730665000156, "event": "done"}]}, {"trial": {"cue_direction": "right", "stimulus": "A|B", "correct_response": "j", "left_cue_condition": 0.5, "stimA_condition": 0.5, "response": "j", "performance": "Correct", "rt": 3.286629583220929}, "events": [{"time": 1002.5860553333769, "event": "initialize", "status": "ok"}, {"time": 1002.5861084165517, "event": "start recording"}, {"time": 1002.8138379999436, "event": "start"}, {"time": 1002.8210070832865, "event": "show fixation"}, {"time": 1003.326564499992, "event": "show cue"}, {"time": 1004.8308077499969, "event": "show fixation"}, {"time": 1005.3387019583024, "event": "start sound"}, {"time": 1005.3388990833191, "event": "start decision window"}, {"time": 1007.0711141249631, "event": "response"}, {"time": 1008.6255312499125, "event": "done"}]}, {"trial": {"cue_direction": "left", "stimulus": "A|A", "correct_response": "f", "left_cue_condition": 0.5, "stimA_condition": 0.5, "response": "f", "performance": "Correct", "rt": 3.4759740834124386}, "events": [{"time": 1008.6390204165364, "event": "initialize", "status": "ok"}, {"time": 1008.6390832499601, "event": "start recording"}, {"time": 1008.8764637499116, "event": "start"}, {"time": 1008.8833390416112, "event": "show fixation"}, {"time": 1009.3884739583591, "event": "show cue"}, {"time": 1010.9037502083229, "event": "show fixation"}, {"time": 1011.4121997916372, "event": "start sound"}, {"time": 1011.4123973333044, "event": "start decision window"}, {"time": 1012.4468943749089, "event": "response"}, {"time": 1014.8883735833224, "event": "done"}]}, {"trial": {"cue_direction": "left", "stimulus": "B|A", "correct_response": "j", "left_cue_condition": 0.5, "stimA_condition": 0.5, "response": "j", "performance": "Correct", "rt": 4.523240374983288}, "events": [{"time": 1014.9014830833767, "event": "initialize", "status": "ok"}, {"time": 1014.9015381665668, "event": "start recording"}, {"time": 1015.1408018749207, "event": "start"}, {"time": 1015.1478650833014, "event": "show fixation"}, {"time": 1015.6535019165603, "event": "show cue"}, {"time": 1017.1586077082902, "event": "show fixation"}, {"time": 1017.6673724583816, "event": "start sound"}, {"time": 1017.6675827082945, "event": "start decision window"}, {"time": 1019.8071285416372, "event": "response"}, {"time": 1022.1908257915638, "event": "done"}]}, {"trial": {"cue_direction": "left", "stimulus": "A|B", "correct_response": "f", "left_cue_condition": 0.5, "stimA_condition": 0.5, "response": "f", "performance": "Correct", "rt": 3.501071958336979}, "events": [{"time": 1022.2035036250018, "event": "initialize", "status": "ok"}, {"time": 1022.2035565833794, "event": "start recording"}, {"time": 1022.4517924583051, "event": "start"}, {"time": 1022.4587929582922, "event": "show fixation"}, {"time": 1022.9633083333028, "event": "show cue"}, {"time": 1024.4683774999576, "event": "show fixation"}, {"time": 1024.975778291584, "event": "start sound"}, {"time": 1024.976035458385, "event": "start decision window"}, {"time": 1026.199108583387, "event": "response"}, {"time": 1028.4771102083614, "event": "done"}]}, {"trial": {"cue_direction": "right", "stimulus": "B|B", "correct_response": "j", "left_cue_condition": 0.5, "stimA_condition": 0.5, "response": "j", "performance": "Correct", "rt": 2.726439750054851}, "events": [{"time": 1028.4911615415476, "event": "initialize", "status": "ok"}, {"time": 1028.4912375415443, "event": "start recording"}, {"time": 1028.734354541637, "event": "start"}, {"time": 1028.7410804999527, "event": "show fixation"}, {"time": 1029.2462906666333, "event": "show cue"}, {"time": 1030.7512145416113, "event": "show fixation"}, {"time": 1031.2579346249113, "event": "start sound"}, {"time": 1031.2581391666317, "event": "start decision window"}, {"time": 1032.0314772083657, "event": "response"}, {"time": 1033.9845814583823, "event": "done"}]}, {"trial": {"cue_direction": "left", "stimulus": "B|B", "correct_response": "j", "left_cue_condition": 0.5, "stimA_condition": 0.5, "response": "j", "performance": "Correct", "rt": 2.2335051249247044}, "events": [{"time": 1033.998464833363, "event": "initialize", "status": "ok"}, {"time": 1033.9985346666072, "event": "start recording"}, {"time": 1034.2375179583905, "event": "start"}, {"time": 1034.2446346665965, "event": "show fixation"}, {"time": 1034.7497713332996, "event": "show cue"}, {"time": 1036.2555019999854, "event": "show fixation"}, {"time": 1036.7618552499916, "event": "start sound"}, {"time": 1036.7620632083854, "event": "start decision window"}, {"time": 1037.4169439583784, "event": "response"}, {"time": 1038.9955712083029, "event": "done"}]}, {"trial": {"cue_direction": "right", "stimulus": "B|B", "correct_response": "j", "left_cue_condition": 0.5, "stimA_condition": 0.5, "response": "j", "performance": "Correct", "rt": 2.5574014582671225}, "events": [{"time": 1039.0130783749046, "event": "initialize", "status": "ok"}, {"time": 1039.0131451250054, "event": "start recording"}, {"time": 1039.247703458299, "event": "start"}, {"time": 1039.2549162500072, "event": "show fixation"}, {"time": 1039.760326416581, "event": "show cue"}, {"time": 1041.2652676665457, "event": "show fixation"}, {"time": 1041.7718876665458, "event": "start sound"}, {"time": 1041.7720998333534, "event": "start decision window"}, {"time": 1042.719201416592, "event": "response"}, {"time": 1044.3295041249366, "event": "done"}]}, {"trial": {"cue_direction": "right", "stimulus": "A|A", "correct_response": "f", "left_cue_condition": 0.5, "stimA_condition": 0.5, "response": "f", "performance": "Correct", "rt": 3.124897583387792}, "events": [{"time": 1044.342827166547, "event": "initialize", "status": "ok"}, {"time": 1044.342883999925, "event": "start recording"}, {"time": 1044.5843379165744, "event": "start"}, {"time": 1044.5903544583125, "event": "show fixation"}, {"time": 1045.0960354999406, "event": "show cue"}, {"time": 1046.6009854999138, "event": "show fixation"}, {"time": 1047.1106755833607, "event": "start sound"}, {"time": 1047.1108737499453, "event": "start decision window"}, {"time": 1047.8074401249178, "event": "response"}, {"time": 1050.2357752500102, "event": "done"}]}, {"trial": {"cue_direction": "right", "stimulus": "B|B", "correct_response": "j", "left_cue_condition": 0.5, "stimA_condition": 0.5, "response": "j", "performance": "Correct", "rt": 3.2200840417062864}, "events": [{"time": 1050.2489502915414, "event": "initialize", "status": "ok"}, {"time": 1050.2490023749415, "event": "start recording"}, {"time": 1050.4882250415394, "event": "start"}, {"time": 1050.4954672500025, "event": "show fixation"}, {"time": 1051.0009860832943, "event": "show cue"}, {"time": 1052.5065300415736, "event": "show fixation"}, {"time": 1053.0134147915523, "event": "start sound"}, {"time": 1053.0136549165472, "event": "start decision window"}, {"time": 1054.3755247083027, "event": "response"}, {"time": 1056.233741333359, "event": "done"}]}, {"trial": {"cue_direction": "left", "stimulus": "A|A", "correct_response": "f", "left_cue_condition": 0.5, "stimA_condition": 0.5, "response": "f", "performance": "Correct", "rt": 3.242590833338909}, "events": [{"time": 1056.24742099992, "event": "initialize", "status": "ok"}, {"time": 1056.2474817499751, "event": "start recording"}, {"time": 1056.4848789166426, "event": "start"}, {"time": 1056.4901862499537, "event": "show fixation"}, {"time": 1056.9960803749273, "event": "show cue"}, {"time": 1058.501221833285, "event": "show fixation"}, {"time": 1059.0107771250186, "event": "start sound"}, {"time": 1059.0109696665313, "event": "start decision window"}, {"time": 1060.1913007915718, "event": "response"}, {"time": 1062.253562958329, "event": "done"}]}, {"trial": {"cue_direction": "left", "stimulus": "B|A", "correct_response": "j", "left_cue_condition": 0.5, "stimA_condition": 0.5, "response": "j", "performance": "Correct", "rt": 2.995171874994412}, "events": [{"time": 1062.267412874964, "event": "initialize", "status": "ok"}, {"time": 1062.2674652083078, "event": "start recording"}, {"time": 1062.5056727083866, "event": "start"}, {"time": 1062.5123382499442, "event": "show fixation"}, {"time": 1063.017603666638, "event": "show cue"}, {"time": 1064.5231648333138, "event": "show fixation"}, {"time": 1065.030835499987, "event": "start sound"}, {"time": 1065.0310352499364, "event": "start decision window"}, {"time": 1065.903842416592, "event": "response"}, {"time": 1068.026211166638, "event": "done"}]}, {"trial": {"cue_direction": "left", "stimulus": "B|B", "correct_response": "j", "left_cue_condition": 0.5, "stimA_condition": 0.5, "response": "j", "performance": "Correct", "rt": 2.861051333369687}, "events": [{"time": 1068.040240000002, "event": "initialize", "status": "ok"}, {"time": 1068.0403049165616, "event": "start recording"}, {"time": 1068.269880708307, "event": "start"}, {"time": 1068.2769204166252, "event": "show fixation"}, {"time": 1068.7817866249243, "event": "show cue"}, {"time": 1070.2869873750024, "event": "show fixation"}, {"time": 1070.7936747499043, "event": "start sound"}, {"time": 1070.7938644583337, "event": "start decision window"}, {"time": 1071.2317885415396, "event": "response"}, {"time": 1073.6549186250195, "event": "done"}]}, {"trial": {"cue_direction": "right", "stimulus": "A|B", "correct_response": "j", "left_cue_condition": 0.5, "stimA_condition": 0.5, "response": "j", "performance": "Correct", "rt": 3.983713583322242}, "events": [{"time": 1073.6680337499129, "event": "initialize", "status": "ok"}, {"time": 1073.6680959999794, "event": "start recording"}, {"time": 1073.9053996249568, "event": "start"}, {"time": 1073.9124173333403, "event": "show fixation"}, {"time": 1074.4177877500188, "event": "show cue"}, {"time": 1075.9236915833317, "event": "show fixation"}, {"time": 1076.4308924166253, "event": "start sound"}, {"time": 1076.431084458367, "event": "start decision window"}, {"time": 1077.9916758333566, "event": "response"}, {"time": 1080.4148016249528, "event": "done"}]}, {"trial": {"cue_direction": "left", "stimulus": "A|A", "correct_response": "f", "left_cue_condition": 0.5, "stimA_condition": 0.5, "response": "f", "performance": "Correct", "rt": 3.492513416800648}, "events": [{"time": 1080.428854583297, "event": "initialize", "status": "ok"}, {"time": 1080.4289074999979, "event": "start recording"}, {"time": 1080.6660564583726, "event": "start"}, {"time": 1080.6733850833261, "event": "show fixation"}, {"time": 1081.1789311665343, "event": "show cue"}, {"time": 1082.6835328749148, "event": "show fixation"}, {"time": 1083.1915868333308, "event": "start sound"}, {"time": 1083.1918116249144, "event": "start decision window"}, {"time": 1085.0716287916293, "event": "response"}, {"time": 1086.6843270416139, "event": "done"}]}, {"trial": {"cue_direction": "right", "stimulus": "B|A", "correct_response": "f", "left_cue_condition": 0.5, "stimA_condition": 0.5, "response": "f", "performance": "Correct", "rt": 3.637022958486341}, "events": [{"time": 1086.6983743750025, "event": "initialize", "status": "ok"}, {"time": 1086.6984477083897, "event": "start recording"}, {"time": 1086.9267181665637, "event": "start"}, {"time": 1086.9339545000112, "event": "show fixation"}, {"time": 1087.4394448333187, "event": "show cue"}, {"time": 1088.9437589999288, "event": "show fixation"}, {"time": 1089.451696416596, "event": "start sound"}, {"time": 1089.4518840833334, "event": "start decision window"}, {"time": 1090.6961144165834, "event": "response"}, {"time": 1093.0889098333428, "event": "done"}]}], "practice_data": [], "window": [1920, 1080], "bonus": 56.33}