{"config_number": 0, "parameters": {"points_per_cent": 2, "time_limit": 5, "correct_responses": ["f", "j"], "combination_num": 8, "gaze_tolerance": 1.5, "triggers": "<triggers.Triggers object at 0x314519160>"}, "main_data": [{"trial": {"cue_direction": "left", "stimulus": "A|A", "correct_response": "f", "left_cue_condition": 0.9, "stimA_condition": 0.9, "response": "f", "performance": "Correct", "rt": 2.9416485832771286}, "events": [{"time": 204.6937813750119, "event": "initialize", "status": "ok"}, {"time": 204.69387212500442, "event": "start recording"}, {"time": 204.81850908329943, "event": "start"}, {"time": 204.82307679165388, "event": "show fixation"}, {"time": 205.3286452916218, "event": "show cue"}, {"time": 206.8346893750131, "event": "show fixation"}, {"time": 207.34752837498672, "event": "start sound"}, {"time": 207.84768216661178, "event": "start decision window"}, {"time": 208.18052024999633, "event": "response"}, {"time": 210.28930858330568, "event": "done"}]}, {"trial": {"cue_direction": "left", "stimulus": "A|A", "correct_response": "f", "left_cue_condition": 0.9, "stimA_condition": 0.9, "response": "f", "performance": "Correct", "rt": 3.0157801249879412}, "events": [{"time": 210.30801041662926, "event": "initialize", "status": "ok"}, {"time": 210.30807120830286, "event": "start recording"}, {"time": 210.43396337499144, "event": "start"}, {"time": 210.435834041622, "event": "show fixation"}, {"time": 210.9405498332926, "event": "show cue"}, {"time": 212.44707916665357, "event": "show fixation"}, {"time": 212.95571608329192, "event": "start sound"}, {"time": 213.45589608332375, "event": "start decision window"}, {"time": 213.55654195829993, "event": "response"}, {"time": 215.97167095832992, "event": "done"}]}, {"trial": {"cue_direction": "left", "stimulus": "A|A", "correct_response": "f", "left_cue_condition": 0.9, "stimA_condition": 0.9, "response": "f", "performance": "Correct", "rt": 2.618072208308149}, "events": [{"time": 215.99054962501395, "event": "initialize", "status": "ok"}, {"time": 215.99059929163195, "event": "start recording"}, {"time": 216.11612166662235, "event": "start"}, {"time": 216.11826033331454, "event": "show fixation"}, {"time": 216.6234967916389, "event": "show cue"}, {"time": 218.13056866661645, "event": "show fixation"}, {"time": 218.6399241249892, "event": "start sound"}, {"time": 219.1400922916364, "event": "start decision window"}, {"time": 219.2367974583176, "event": "response"}, {"time": 221.25813583331183, "event": "done"}]}, {"trial": {"cue_direction": "left", "stimulus": "A|A", "correct_response": "f", "left_cue_condition": 0.9, "stimA_condition": 0.9, "response": "f", "performance": "Correct", "rt": 2.153768416668754}, "events": [{"time": 221.28567591664614, "event": "initialize", "status": "ok"}, {"time": 221.28573508333648, "event": "start recording"}, {"time": 221.41060916660354, "event": "start"}, {"time": 221.41271845833398, "event": "show fixation"}, {"time": 221.91814633330796, "event": "show cue"}, {"time": 223.42515725002158, "event": "show fixation"}, {"time": 223.93378075002693, "event": "start sound"}, {"time": 224.4339430416003, "event": "start decision window"}, {"time": 224.54875320830615, "event": "response"}, {"time": 226.0877061249921, "event": "done"}]}, {"trial": {"cue_direction": "left", "stimulus": "A|A", "correct_response": "f", "left_cue_condition": 0.9, "stimA_condition": 0.9, "response": "f", "performance": "Correct", "rt": 2.418298708333168}, "events": [{"time": 226.1064904166269, "event": "initialize", "status": "ok"}, {"time": 226.10653670830652, "event": "start recording"}, {"time": 226.23238629160915, "event": "start"}, {"time": 226.23424904164858, "event": "show fixation"}, {"time": 226.7392874166253, "event": "show cue"}, {"time": 228.24709533329587, "event": "show fixation"}, {"time": 228.75625333329663, "event": "start sound"}, {"time": 229.25639583333395, "event": "start decision window"}, {"time": 229.62860574998194, "event": "response"}, {"time": 231.17468433332397, "event": "done"}]}, {"trial": {"cue_direction": "left", "stimulus": "B|A", "correct_response": "j", "left_cue_condition": 0.9, "stimA_condition": 0.9, "response": "f", "performance": "Incorrect", "rt": 2.966401291661896}, "events": [{"time": 231.19871545833303, "event": "initialize", "status": "ok"}, {"time": 231.19875812501414, "event": "start recording"}, {"time": 231.32480895833578, "event": "start"}, {"time": 231.3268442916451, "event": "show fixation"}, {"time": 231.83205845829798, "event": "show cue"}, {"time": 233.33880816661986, "event": "show fixation"}, {"time": 233.85511424997821, "event": "start sound"}, {"time": 234.35526937502436, "event": "start decision window"}, {"time": 234.95674320834223, "event": "response"}, {"time": 236.82167099998333, "event": "done"}]}, {"trial": {"cue_direction": "left", "stimulus": "A|B", "correct_response": "f", "left_cue_condition": 0.9, "stimA_condition": 0.9, "response": "f", "performance": "Correct", "rt": 3.234774250013288}, "events": [{"time": 236.84140575001948, "event": "initialize", "status": "ok"}, {"time": 236.84146091662114, "event": "start recording"}, {"time": 236.96764337498462, "event": "start"}, {"time": 236.96985441661673, "event": "show fixation"}, {"time": 237.47510270832572, "event": "show cue"}, {"time": 238.98271374998149, "event": "show fixation"}, {"time": 239.49203399999533, "event": "start sound"}, {"time": 239.99221066664904, "event": "start decision window"}, {"time": 240.46864245831966, "event": "response"}, {"time": 242.72695945831947, "event": "done"}]}, {"trial": {"cue_direction": "left", "stimulus": "A|B", "correct_response": "f", "left_cue_condition": 0.9, "stimA_condition": 0.9, "response": "f", "performance": "Correct", "rt": 3.085849374998361}, "events": [{"time": 242.75203683332074, "event": "initialize", "status": "ok"}, {"time": 242.75208179163747, "event": "start recording"}, {"time": 242.87666545831598, "event": "start"}, {"time": 242.87828858330613, "event": "show fixation"}, {"time": 243.38327087502694, "event": "show cue"}, {"time": 244.8901057083276, "event": "show fixation"}, {"time": 245.40429645829136, "event": "start sound"}, {"time": 245.9044138333411, "event": "start decision window"}, {"time": 246.0845923750312, "event": "response"}, {"time": 248.49025700002676, "event": "done"}]}, {"trial": {"cue_direction": "left", "stimulus": "A|B", "correct_response": "f", "left_cue_condition": 0.9, "stimA_condition": 0.9, "response": "f", "performance": "Correct", "rt": 2.6428709583124146}, "events": [{"time": 248.51853058330016, "event": "initialize", "status": "ok"}, {"time": 248.5185871666181, "event": "start recording"}, {"time": 248.64339783333708, "event": "start"}, {"time": 248.64625699998578, "event": "show fixation"}, {"time": 249.15189575002296, "event": "show cue"}, {"time": 250.6584838333074, "event": "show fixation"}, {"time": 251.1683596666553, "event": "start sound"}, {"time": 251.66851608332945, "event": "start decision window"}, {"time": 251.80463349999627, "event": "response"}, {"time": 253.8113805000321, "event": "done"}]}, {"trial": {"cue_direction": "left", "stimulus": "A|A", "correct_response": "f", "left_cue_condition": 0.9, "stimA_condition": 0.9, "response": "f", "performance": "Correct", "rt": 3.629451666609384}, "events": [{"time": 253.83244199998444, "event": "initialize", "status": "ok"}, {"time": 253.83249741664622, "event": "start recording"}, {"time": 253.95729945832863, "event": "start"}, {"time": 253.95958829164738, "event": "show fixation"}, {"time": 254.46528787497664, "event": "show cue"}, {"time": 255.97219720832072, "event": "show fixation"}, {"time": 256.4888721666066, "event": "start sound"}, {"time": 256.98899983329466, "event": "start decision window"}, {"time": 257.71645829163026, "event": "response"}, {"time": 260.1184502916294, "event": "done"}]}, {"trial": {"cue_direction": "left", "stimulus": "A|A", "correct_response": "f", "left_cue_condition": 0.9, "stimA_condition": 0.9, "response": "f", "performance": "Correct", "rt": 2.7923027916112915}, "events": [{"time": 260.138442333322, "event": "initialize", "status": "ok"}, {"time": 260.13849375001155, "event": "start recording"}, {"time": 260.26490383333294, "event": "start"}, {"time": 260.2671905833413, "event": "show fixation"}, {"time": 260.7726150000235, "event": "show cue"}, {"time": 262.2801576666534, "event": "show fixation"}, {"time": 262.78912754164776, "event": "start sound"}, {"time": 263.28925874998095, "event": "start decision window"}, {"time": 263.35639099997934, "event": "response"}, {"time": 265.5815500000026, "event": "done"}]}, {"trial": {"cue_direction": "left", "stimulus": "A|A", "correct_response": "f", "left_cue_condition": 0.9, "stimA_condition": 0.9, "response": "f", "performance": "Correct", "rt": 2.752839083375875}, "events": [{"time": 265.6008119999897, "event": "initialize", "status": "ok"}, {"time": 265.60085395834176, "event": "start recording"}, {"time": 265.72747129161144, "event": "start"}, {"time": 265.7296695000259, "event": "show fixation"}, {"time": 266.2347797083203, "event": "show cue"}, {"time": 267.74141200003214, "event": "show fixation"}, {"time": 268.2490714582964, "event": "start sound"}, {"time": 268.74923454161035, "event": "start decision window"}, {"time": 269.03654287499376, "event": "response"}, {"time": 271.0020688333316, "event": "done"}]}, {"trial": {"cue_direction": "left", "stimulus": "A|A", "correct_response": "f", "left_cue_condition": 0.9, "stimA_condition": 0.9, "response": "f", "performance": "Correct", "rt": 2.6955082917120308}, "events": [{"time": 271.02162933332147, "event": "initialize", "status": "ok"}, {"time": 271.0216770833358, "event": "start recording"}, {"time": 271.15091979160206, "event": "start"}, {"time": 271.1531202499755, "event": "show fixation"}, {"time": 271.6583503333386, "event": "show cue"}, {"time": 273.1662412500009, "event": "show fixation"}, {"time": 273.67595366662135, "event": "start sound"}, {"time": 274.1761892082868, "event": "start decision window"}, {"time": 274.3644485833356, "event": "response"}, {"time": 276.3716813750216, "event": "done"}]}, {"trial": {"cue_direction": "left", "stimulus": "A|A", "correct_response": "f", "left_cue_condition": 0.9, "stimA_condition": 0.9, "response": "f", "performance": "Correct", "rt": 3.0284298749757}, "events": [{"time": 276.3906493333052, "event": "initialize", "status": "ok"}, {"time": 276.3906922916067, "event": "start recording"}, {"time": 276.51614908332704, "event": "start"}, {"time": 276.5181520416518, "event": "show fixation"}, {"time": 277.0234478749917, "event": "show cue"}, {"time": 278.53002845833544, "event": "show fixation"}, {"time": 279.03950970829464, "event": "start sound"}, {"time": 279.53964708332205, "event": "start decision window"}, {"time": 279.6683964583208, "event": "response"}, {"time": 282.0680778750102, "event": "done"}]}, {"trial": {"cue_direction": "left", "stimulus": "A|A", "correct_response": "f", "left_cue_condition": 0.9, "stimA_condition": 0.9, "response": "f", "performance": "Correct", "rt": 3.1505037916940637}, "events": [{"time": 282.08671562501695, "event": "initialize", "status": "ok"}, {"time": 282.0867660000222, "event": "start recording"}, {"time": 282.2120570000261, "event": "start"}, {"time": 282.2140450000297, "event": "show fixation"}, {"time": 282.7191800000146, "event": "show cue"}, {"time": 284.22588637500303, "event": "show fixation"}, {"time": 284.7342912083259, "event": "start sound"}, {"time": 285.2344479166204, "event": "start decision window"}, {"time": 285.97187533334363, "event": "response"}, {"time": 287.8849358750158, "event": "done"}]}, {"trial": {"cue_direction": "right", "stimulus": "A|A", "correct_response": "f", "left_cue_condition": 0.9, "stimA_condition": 0.9, "response": "f", "performance": "Correct", "rt": 2.9418613332672976}, "events": [{"time": 287.90260650002165, "event": "initialize", "status": "ok"}, {"time": 287.9026607082924, "event": "start recording"}, {"time": 288.0305731249973, "event": "start"}, {"time": 288.0329202916473, "event": "show fixation"}, {"time": 288.53856587503105, "event": "show cue"}, {"time": 290.0482760416344, "event": "show fixation"}, {"time": 290.5558903333149, "event": "start sound"}, {"time": 291.056007291656, "event": "start decision window"}, {"time": 291.35630195832346, "event": "response"}, {"time": 293.4978657916072, "event": "done"}]}, {"trial": {"cue_direction": "left", "stimulus": "A|A", "correct_response": "f", "left_cue_condition": 0.9, "stimA_condition": 0.9, "response": "f", "performance": "Correct", "rt": 2.883622416702565}, "events": [{"time": 293.51866262499243, "event": "initialize", "status": "ok"}, {"time": 293.51871637499426, "event": "start recording"}, {"time": 293.6447319583385, "event": "start"}, {"time": 293.6465995416511, "event": "show fixation"}, {"time": 294.1521923333057, "event": "show cue"}, {"time": 295.6587791250204, "event": "show fixation"}, {"time": 296.16706175002037, "event": "start sound"}, {"time": 296.66718366660643, "event": "start decision window"}, {"time": 297.02043512498494, "event": "response"}, {"time": 299.05080341664143, "event": "done"}]}, {"trial": {"cue_direction": "left", "stimulus": "A|A", "correct_response": "f", "left_cue_condition": 0.9, "stimA_condition": 0.9, "response": "f", "performance": "Correct", "rt": 2.69520462496439}, "events": [{"time": 299.0702095833258, "event": "initialize", "status": "ok"}, {"time": 299.0702749166521, "event": "start recording"}, {"time": 299.19521587499185, "event": "start"}, {"time": 299.19726370833814, "event": "show fixation"}, {"time": 299.7024269166286, "event": "show cue"}, {"time": 301.2087435416179, "event": "show fixation"}, {"time": 301.717413208331, "event": "start sound"}, {"time": 302.21753795829136, "event": "start decision window"}, {"time": 302.3537231250084, "event": "response"}, {"time": 304.4127412500093, "event": "done"}]}, {"trial": {"cue_direction": "left", "stimulus": "A|A", "correct_response": "f", "left_cue_condition": 0.9, "stimA_condition": 0.9, "response": "f", "performance": "Correct", "rt": 2.886260833358392}, "events": [{"time": 304.4358576666564, "event": "initialize", "status": "ok"}, {"time": 304.43591104162624, "event": "start recording"}, {"time": 304.5606962083257, "event": "start"}, {"time": 304.5629064166569, "event": "show fixation"}, {"time": 305.0682705832878, "event": "show cue"}, {"time": 306.57507416664157, "event": "show fixation"}, {"time": 307.0833523333422, "event": "start sound"}, {"time": 307.58351233333815, "event": "start decision window"}, {"time": 307.6122178750229, "event": "response"}, {"time": 309.96975295833545, "event": "done"}]}, {"trial": {"cue_direction": "left", "stimulus": "A|A", "correct_response": "f", "left_cue_condition": 0.9, "stimA_condition": 0.9, "response": "f", "performance": "Correct", "rt": 2.6097411666996777}, "events": [{"time": 309.98900658328785, "event": "initialize", "status": "ok"}, {"time": 309.98906191665446, "event": "start recording"}, {"time": 310.1149544583168, "event": "start"}, {"time": 310.1173095416161, "event": "show fixation"}, {"time": 310.6227440832881, "event": "show cue"}, {"time": 312.1290170000284, "event": "show fixation"}, {"time": 312.6382009583176, "event": "start sound"}, {"time": 313.13834725000197, "event": "start decision window"}, {"time": 313.1722785833408, "event": "response"}, {"time": 315.2480809999979, "event": "done"}]}, {"trial": {"cue_direction": "left", "stimulus": "A|A", "correct_response": "f", "left_cue_condition": 0.9, "stimA_condition": 0.9, "response": "f", "performance": "Correct", "rt": 3.1002784583251923}, "events": [{"time": 315.2677432083292, "event": "initialize", "status": "ok"}, {"time": 315.26779404160334, "event": "start recording"}, {"time": 315.3935022916412, "event": "start"}, {"time": 315.3954634166439, "event": "show fixation"}, {"time": 315.90088391664904, "event": "show cue"}, {"time": 317.4073999582906, "event": "show fixation"}, {"time": 317.91577616659924, "event": "start sound"}, {"time": 318.4161014583078, "event": "start decision window"}, {"time": 318.5242371666245, "event": "response"}, {"time": 321.01635500002885, "event": "done"}]}, {"trial": {"cue_direction": "left", "stimulus": "A|A", "correct_response": "f", "left_cue_condition": 0.9, "stimA_condition": 0.9, "response": "f", "performance": "Correct", "rt": 2.1605849583284}, "events": [{"time": 321.0360610833159, "event": "initialize", "status": "ok"}, {"time": 321.03612479160074, "event": "start recording"}, {"time": 321.1623797499924, "event": "start"}, {"time": 321.1644606249756, "event": "show fixation"}, {"time": 321.66980454162695, "event": "show cue"}, {"time": 323.1771004166221, "event": "show fixation"}, {"time": 323.68589783331845, "event": "start sound"}, {"time": 324.1860586666153, "event": "start decision window"}, {"time": 324.2362541666371, "event": "response"}, {"time": 325.8466430833214, "event": "done"}]}, {"trial": {"cue_direction": "left", "stimulus": "A|B", "correct_response": "f", "left_cue_condition": 0.9, "stimA_condition": 0.9, "response": "j", "performance": "Incorrect", "rt": 4.127910750044975}, "events": [{"time": 325.8658923333278, "event": "initialize", "status": "ok"}, {"time": 325.865946875012, "event": "start recording"}, {"time": 325.99224375002086, "event": "start"}, {"time": 325.99430299998494, "event": "show fixation"}, {"time": 326.4994970416301, "event": "show cue"}, {"time": 328.006478416617, "event": "show fixation"}, {"time": 328.5216559583205, "event": "start sound"}, {"time": 329.02184025000315, "event": "start decision window"}, {"time": 330.20422808331205, "event": "response"}, {"time": 332.6497291250271, "event": "done"}]}, {"trial": {"cue_direction": "left", "stimulus": "A|A", "correct_response": "f", "left_cue_condition": 0.9, "stimA_condition": 0.9, "response": "f", "performance": "Correct", "rt": 2.678948374988977}, "events": [{"time": 332.66843741660705, "event": "initialize", "status": "ok"}, {"time": 332.668492124998, "event": "start recording"}, {"time": 332.79412045830395, "event": "start"}, {"time": 332.7961728749797, "event": "show fixation"}, {"time": 333.3015697916271, "event": "show cue"}, {"time": 334.80828808329534, "event": "show fixation"}, {"time": 335.3169145833235, "event": "start sound"}, {"time": 335.8170679999748, "event": "start decision window"}, {"time": 336.19628104160074, "event": "response"}, {"time": 337.99599787499756, "event": "done"}]}, {"trial": {"cue_direction": "left", "stimulus": "A|A", "correct_response": "f", "left_cue_condition": 0.9, "stimA_condition": 0.9, "response": "f", "performance": "Correct", "rt": 2.3174845416797325}, "events": [{"time": 338.0151481666253, "event": "initialize", "status": "ok"}, {"time": 338.0152060833061, "event": "start recording"}, {"time": 338.14053383329883, "event": "start"}, {"time": 338.14260333334096, "event": "show fixation"}, {"time": 338.64770620834315, "event": "show cue"}, {"time": 340.1540952916257, "event": "show fixation"}, {"time": 340.66272504162043, "event": "start sound"}, {"time": 341.16288387501845, "event": "start decision window"}, {"time": 341.4522704166011, "event": "response"}, {"time": 342.9803492083447, "event": "done"}]}, {"trial": {"cue_direction": "left", "stimulus": "A|B", "correct_response": "f", "left_cue_condition": 0.9, "stimA_condition": 0.9, "response": "j", "performance": "Incorrect", "rt": 4.193573166616261}, "events": [{"time": 342.99958666664315, "event": "initialize", "status": "ok"}, {"time": 342.9996502083377, "event": "start recording"}, {"time": 343.1260002083145, "event": "start"}, {"time": 343.1281195000047, "event": "show fixation"}, {"time": 343.6332792916219, "event": "show cue"}, {"time": 345.1396725833183, "event": "show fixation"}, {"time": 345.6539097499917, "event": "start sound"}, {"time": 346.1540759583004, "event": "start decision window"}, {"time": 347.4202502500266, "event": "response"}, {"time": 349.84763570834184, "event": "done"}]}, {"trial": {"cue_direction": "right", "stimulus": "A|A", "correct_response": "f", "left_cue_condition": 0.9, "stimA_condition": 0.9, "response": "f", "performance": "Correct", "rt": 2.698157958337106}, "events": [{"time": 349.8667730833404, "event": "initialize", "status": "ok"}, {"time": 349.8668314582901, "event": "start recording"}, {"time": 349.99288716661977, "event": "start"}, {"time": 349.995021083334, "event": "show fixation"}, {"time": 350.50049150001723, "event": "show cue"}, {"time": 352.0069710416137, "event": "show fixation"}, {"time": 352.51527458330384, "event": "start sound"}, {"time": 353.01541379163973, "event": "start decision window"}, {"time": 353.5082916250103, "event": "response"}, {"time": 355.2135563333286, "event": "done"}]}, {"trial": {"cue_direction": "left", "stimulus": "A|A", "correct_response": "f", "left_cue_condition": 0.9, "stimA_condition": 0.9, "response": "f", "performance": "Correct", "rt": 2.369073541718535}, "events": [{"time": 355.23304579162505, "event": "initialize", "status": "ok"}, {"time": 355.2330984166474, "event": "start recording"}, {"time": 355.3587019999977, "event": "start"}, {"time": 355.3606825416209, "event": "show fixation"}, {"time": 355.8662633333006, "event": "show cue"}, {"time": 357.3726846666541, "event": "show fixation"}, {"time": 357.88727025000844, "event": "start sound"}, {"time": 358.38747070828686, "event": "start decision window"}, {"time": 358.6121821249835, "event": "response"}, {"time": 360.2565294583328, "event": "done"}]}, {"trial": {"cue_direction": "left", "stimulus": "A|A", "correct_response": "f", "left_cue_condition": 0.9, "stimA_condition": 0.9, "response": "f", "performance": "Correct", "rt": 2.3435760000138544}, "events": [{"time": 360.2817534166388, "event": "initialize", "status": "ok"}, {"time": 360.2817997499951, "event": "start recording"}, {"time": 360.4080721666105, "event": "start"}, {"time": 360.4102933750255, "event": "show fixation"}, {"time": 360.91572029161034, "event": "show cue"}, {"time": 362.4233349583228, "event": "show fixation"}, {"time": 362.9355836666073, "event": "start sound"}, {"time": 363.4357654583291, "event": "start decision window"}, {"time": 363.7001196666388, "event": "response"}, {"time": 365.2793279582984, "event": "done"}]}, {"trial": {"cue_direction": "left", "stimulus": "A|A", "correct_response": "f", "left_cue_condition": 0.9, "stimA_condition": 0.9, "response": "f", "performance": "Correct", "rt": 2.33561658335384}, "events": [{"time": 365.2977317083278, "event": "initialize", "status": "ok"}, {"time": 365.2977841250249, "event": "start recording"}, {"time": 365.4233968749759, "event": "start"}, {"time": 365.4252583750058, "event": "show fixation"}, {"time": 365.9305821250309, "event": "show cue"}, {"time": 367.43690504162805, "event": "show fixation"}, {"time": 367.9454749583383, "event": "start sound"}, {"time": 368.4456662500161, "event": "start decision window"}, {"time": 368.58805504161865, "event": "response"}, {"time": 370.28125291661127, "event": "done"}]}], "practice_data": [], "window": [3840, 2160], "bonus": 16.84}